timestamp,lap,vehicle_id,steering_angle,accx_can,accy_can,ath,gear,nmot,pbrake_f,pbrake_r,speed
2025-08-15T00:39:36.469Z,8,GR86-015-31,1.0,0.158,0.034,100.0,5.0,,0.0,0.0,187.46
2025-08-15T00:39:36.512Z,8,GR86-015-31,1.0,0.141,0.033,99.99,5.0,,0.0,0.0,
2025-08-15T00:39:36.555Z,8,GR86-015-31,1.0,0.141,-0.012,100.02,5.0,,0.0,0.0,
2025-08-15T00:39:36.598Z,8,GR86-015-31,0.9,0.142,-0.026,100.01,5.0,,0.0,0.0,
2025-08-15T00:39:36.641Z,8,GR86-015-31,0.9,0.142,-0.029,100.02,5.0,6409.0,0.0,0.0,
2025-08-15T00:39:36.685Z,8,GR86-015-31,0.9,0.151,-0.014,99.99,5.0,,0.0,0.0,188.25
2025-08-15T00:39:36.728Z,8,GR86-015-31,0.9,0.155,-0.017,99.99,5.0,,0.0,0.0,
2025-08-15T00:39:36.771Z,8,GR86-015-31,0.9,0.149,-0.036,100.01,5.0,,0.0,0.0,
2025-08-15T00:39:36.815Z,8,GR86-015-31,0.9,0.113,0.018,100.0,5.0,,0.0,0.0,
2025-08-15T00:39:36.857Z,8,GR86-015-31,1.2000000000000002,0.134,0.013,99.99,5.0,6421.0,0.0,0.0,
2025-08-15T00:39:36.901Z,8,GR86-015-31,2.2,0.116,0.034,100.02,5.0,,0.0,0.0,189.04
2025-08-15T00:39:36.945Z,8,GR86-015-31,4.2,0.132,0.059,99.99,5.0,,0.0,0.0,
2025-08-15T00:39:36.988Z,8,GR86-015-31,6.1000000000000005,0.136,0.087,99.99,5.0,,0.0,0.0,
2025-08-15T00:39:37.030Z,8,GR86-015-31,7.2,0.132,0.157,99.99,5.0,,0.0,0.0,
2025-08-15T00:39:37.074Z,8,GR86-015-31,7.4,0.138,0.22,100.0,5.0,6443.0,0.0,0.0,
2025-08-15T00:39:37.118Z,8,GR86-015-31,7.4,0.133,0.277,99.99,5.0,,0.0,0.0,189.77
2025-08-15T00:39:37.160Z,8,GR86-015-31,7.4,0.13,0.296,100.0,5.0,,0.0,0.0,
2025-08-15T00:39:37.204Z,8,GR86-015-31,7.5,0.108,0.336,99.99,5.0,,0.0,0.0,
2025-08-15T00:39:37.246Z,8,GR86-015-31,7.4,0.113,0.34,99.98,5.0,,0.0,0.0,
2025-08-15T00:39:37.289Z,8,GR86-015-31,7.4,0.112,0.35,100.02,5.0,6482.0,0.0,0.0,
2025-08-15T00:39:37.332Z,8,GR86-015-31,6.9,0.114,0.338,99.99,5.0,,0.0,0.0,190.56
2025-08-15T00:39:37.375Z,8,GR86-015-31,6.5,0.156,0.309,100.0,5.0,,0.0,0.0,
2025-08-15T00:39:37.418Z,8,GR86-015-31,6.4,0.14,0.248,100.01,5.0,,0.0,0.0,
2025-08-15T00:39:37.461Z,8,GR86-015-31,6.4,0.16,0.205,100.02,5.0,,0.0,0.0,
2025-08-15T00:39:37.505Z,8,GR86-015-31,6.4,0.124,0.186,99.99,5.0,6504.0,0.0,0.0,
2025-08-15T00:39:37.547Z,8,GR86-015-31,6.300000000000001,0.129,0.17,99.99,5.0,,0.0,0.0,191.38
2025-08-15T00:39:37.590Z,8,GR86-015-31,6.300000000000001,0.109,0.153,100.0,5.0,,0.0,0.0,
2025-08-15T00:39:37.634Z,8,GR86-015-31,5.1000000000000005,0.155,0.136,100.0,5.0,,0.0,0.0,
2025-08-15T00:39:37.676Z,8,GR86-015-31,4.1000000000000005,0.164,0.115,100.01,5.0,,0.0,0.0,
2025-08-15T00:39:37.719Z,8,GR86-015-31,4.0,0.149,0.098,99.99,5.0,6527.0,0.0,0.0,
2025-08-15T00:39:37.762Z,8,GR86-015-31,4.0,0.134,0.097,99.99,5.0,,0.0,0.0,192.15
2025-08-15T00:39:37.805Z,8,GR86-015-31,4.0,0.126,0.061,100.02,5.0,,0.0,0.0,
2025-08-15T00:39:37.848Z,8,GR86-015-31,3.9,0.116,0.038,100.01,5.0,,0.0,0.0,
2025-08-15T00:39:37.892Z,8,GR86-015-31,3.9,0.104,0.02,99.98,5.0,,0.0,0.0,
2025-08-15T00:39:37.935Z,8,GR86-015-31,3.5,0.127,0.033,99.98,5.0,6550.0,0.0,0.0,
2025-08-15T00:39:37.978Z,8,GR86-015-31,3.2,0.137,0.021,99.99,5.0,,0.0,0.0,192.89
2025-08-15T00:39:38.021Z,8,GR86-015-31,2.6,0.118,0.01,99.99,5.0,,0.0,0.0,
2025-08-15T00:39:38.065Z,8,GR86-015-31,1.2000000000000002,0.126,0.019,100.0,5.0,,0.0,0.0,
2025-08-15T00:39:38.108Z,8,GR86-015-31,0.5,0.109,0.019,100.0,5.0,,0.0,0.0,
2025-08-15T00:39:38.150Z,8,GR86-015-31,0.4,0.099,-0.008,99.98,5.0,6571.0,0.0,0.0,
2025-08-15T00:39:38.195Z,8,GR86-015-31,-2.4000000000000004,0.126,-0.059,100.0,5.0,,0.0,0.0,194.23
2025-08-15T00:39:38.238Z,8,GR86-015-31,-4.3,0.136,-0.092,100.01,5.0,,0.0,0.0,
2025-08-15T00:39:38.281Z,8,GR86-015-31,-5.0,0.145,-0.14,99.98,5.0,,0.0,0.0,
2025-08-15T00:39:38.325Z,8,GR86-015-31,-5.5,0.12,-0.179,99.98,5.0,,0.0,0.0,
2025-08-15T00:39:38.368Z,8,GR86-015-31,-5.6000000000000005,0.116,-0.225,99.99,5.0,6590.0,0.0,0.0,
2025-08-15T00:39:38.410Z,8,GR86-015-31,-5.6000000000000005,0.102,-0.272,100.01,5.0,,0.0,0.0,194.81
2025-08-15T00:39:38.454Z,8,GR86-015-31,-5.7,0.135,-0.293,100.01,5.0,,0.0,0.0,
2025-08-15T00:39:38.496Z,8,GR86-015-31,-5.2,0.136,-0.321,100.0,5.0,,0.0,0.0,
2025-08-15T00:39:38.539Z,8,GR86-015-31,-4.0,0.132,-0.306,100.03,5.0,,0.0,0.0,
2025-08-15T00:39:38.582Z,8,GR86-015-31,-3.3000000000000003,0.132,-0.273,100.01,5.0,6618.0,0.0,0.0,
2025-08-15T00:39:38.625Z,8,GR86-015-31,-3.4000000000000004,0.12,-0.236,100.01,5.0,,0.0,0.0,195.34
2025-08-15T00:39:38.669Z,8,GR86-015-31,-3.8,0.1,-0.219,99.99,5.0,,0.0,0.0,
2025-08-15T00:39:38.712Z,8,GR86-015-31,-3.9,0.087,-0.224,99.99,5.0,,0.0,0.0,
2025-08-15T00:39:38.755Z,8,GR86-015-31,-4.1000000000000005,0.13,-0.187,100.0,5.0,,0.0,0.0,
2025-08-15T00:39:38.798Z,8,GR86-015-31,-4.1000000000000005,0.129,-0.167,100.0,5.0,6657.0,0.0,0.0,
2025-08-15T00:39:38.841Z,8,GR86-015-31,-4.0,0.119,-0.172,99.99,5.0,,0.0,0.0,195.88
2025-08-15T00:39:38.885Z,8,GR86-015-31,-4.0,0.115,-0.175,99.99,5.0,,0.0,0.0,
2025-08-15T00:39:38.928Z,8,GR86-015-31,-4.7,0.094,-0.181,100.0,5.0,,0.0,0.0,
2025-08-15T00:39:38.971Z,8,GR86-015-31,-6.1000000000000005,0.077,-0.221,100.01,5.0,,0.0,0.0,
2025-08-15T00:39:39.015Z,8,GR86-015-31,-6.0,0.125,-0.239,99.98,5.0,6675.0,0.0,0.0,
2025-08-15T00:39:39.057Z,8,GR86-015-31,-5.9,0.135,-0.241,99.98,5.0,,0.0,0.0,196.61
2025-08-15T00:39:39.100Z,8,GR86-015-31,-6.1000000000000005,0.106,-0.247,100.0,5.0,,0.0,0.0,
2025-08-15T00:39:39.145Z,8,GR86-015-31,-6.1000000000000005,0.104,-0.26,100.0,5.0,,0.0,0.0,
2025-08-15T00:39:39.190Z,8,GR86-015-31,-5.6000000000000005,0.091,-0.27,99.99,5.0,,0.0,0.0,
2025-08-15T00:39:39.235Z,8,GR86-015-31,-5.0,0.127,-0.252,99.99,5.0,6703.0,0.0,0.0,
2025-08-15T00:39:39.278Z,8,GR86-015-31,-5.0,0.128,-0.252,99.99,5.0,,0.0,0.0,197.22
2025-08-15T00:39:39.321Z,8,GR86-015-31,-4.5,0.117,-0.245,99.99,5.0,,0.0,0.0,
2025-08-15T00:39:39.365Z,8,GR86-015-31,-3.6,0.119,-0.194,99.98,5.0,,0.0,0.0,
2025-08-15T00:39:39.407Z,8,GR86-015-31,-3.4000000000000004,0.081,-0.196,99.99,5.0,,0.0,0.0,
2025-08-15T00:39:39.450Z,8,GR86-015-31,-3.4000000000000004,0.078,-0.15,99.99,5.0,6715.0,0.0,0.0,
2025-08-15T00:39:39.495Z,8,GR86-015-31,-3.4000000000000004,0.139,-0.121,100.0,5.0,,0.0,0.0,197.78
2025-08-15T00:39:39.538Z,8,GR86-015-31,-3.2,0.118,-0.096,100.0,5.0,,0.0,0.0,
2025-08-15T00:39:39.581Z,8,GR86-015-31,-3.2,0.102,-0.085,100.0,5.0,,0.0,0.0,
2025-08-15T00:39:39.625Z,8,GR86-015-31,-3.2,0.122,-0.082,99.99,5.0,,0.0,0.0,
2025-08-15T00:39:39.668Z,8,GR86-015-31,-3.2,0.087,-0.08,100.01,5.0,6741.0,0.0,0.0,
2025-08-15T00:39:39.710Z,8,GR86-015-31,-3.2,0.092,-0.072,100.0,5.0,,0.0,0.0,198.4
2025-08-15T00:39:39.754Z,8,GR86-015-31,-3.4000000000000004,0.118,-0.078,100.0,5.0,,0.0,0.0,
2025-08-15T00:39:39.797Z,8,GR86-015-31,-3.4000000000000004,0.089,-0.086,99.99,5.0,,0.0,0.0,
2025-08-15T00:39:39.840Z,8,GR86-015-31,-3.3000000000000003,0.103,-0.103,99.98,5.0,,0.0,0.0,
2025-08-15T00:39:39.884Z,8,GR86-015-31,-3.1,0.096,-0.102,99.98,5.0,6758.0,0.0,0.0,
2025-08-15T00:39:39.926Z,8,GR86-015-31,-3.0,0.092,-0.091,100.01,5.0,,0.0,0.0,198.9
2025-08-15T00:39:39.969Z,8,GR86-015-31,-3.0,0.088,-0.083,99.99,5.0,,0.0,0.0,
2025-08-15T00:39:40.012Z,8,GR86-015-31,-2.9000000000000004,0.101,-0.078,99.99,5.0,,0.0,0.0,
2025-08-15T00:39:40.055Z,8,GR86-015-31,-2.3000000000000003,0.075,-0.042,100.0,5.0,,0.0,0.0,
2025-08-15T00:39:40.098Z,8,GR86-015-31,-2.3000000000000003,0.075,-0.033,100.0,5.0,6787.0,0.0,0.0,
2025-08-15T00:39:40.141Z,8,GR86-015-31,-2.3000000000000003,0.087,-0.041,99.98,5.0,,0.0,0.0,199.49
2025-08-15T00:39:40.185Z,8,GR86-015-31,-2.3000000000000003,0.089,-0.027,99.98,5.0,,0.0,0.0,
2025-08-15T00:39:40.228Z,8,GR86-015-31,-2.3000000000000003,0.108,-0.036,100.01,5.0,,0.0,0.0,
2025-08-15T00:39:40.272Z,8,GR86-015-31,-2.3000000000000003,0.113,-0.037,100.0,5.0,,0.0,0.0,
2025-08-15T00:39:40.315Z,8,GR86-015-31,-2.3000000000000003,0.089,-0.033,99.99,5.0,6796.0,0.0,0.0,
2025-08-15T00:39:40.358Z,8,GR86-015-31,-2.3000000000000003,0.078,-0.04,100.01,5.0,,0.0,0.0,200.22
2025-08-15T00:39:40.401Z,8,GR86-015-31,-1.9,0.095,-0.048,99.98,5.0,,0.0,0.0,
2025-08-15T00:39:40.445Z,8,GR86-015-31,-1.9,0.096,-0.05,99.99,5.0,,0.0,0.0,
2025-08-15T00:39:40.488Z,8,GR86-015-31,-1.9,0.107,-0.064,100.02,5.0,,0.0,0.0,
2025-08-15T00:39:40.530Z,8,GR86-015-31,-1.9,0.109,-0.065,100.0,5.0,6831.0,0.0,0.0,
2025-08-15T00:39:40.574Z,8,GR86-015-31,0.2,0.061,-0.033,99.99,5.0,,0.0,0.0,200.85
2025-08-15T00:39:40.617Z,8,GR86-015-31,1.0,0.102,-0.011,99.99,5.0,,0.0,0.0,
2025-08-15T00:39:40.660Z,8,GR86-015-31,1.0,0.071,0.029,100.0,5.0,,0.0,0.0,
2025-08-15T00:39:40.704Z,8,GR86-015-31,1.0,0.117,0.058,100.01,5.0,,0.0,0.0,
2025-08-15T00:39:40.746Z,8,GR86-015-31,0.3,0.073,0.087,99.99,5.0,6847.0,0.0,0.0,
2025-08-15T00:39:40.790Z,8,GR86-015-31,-0.8,0.107,0.08,99.98,5.0,,0.0,0.0,201.58
2025-08-15T00:39:40.832Z,8,GR86-015-31,-0.9,0.047,0.044,99.99,5.0,,0.0,0.0,
2025-08-15T00:39:40.875Z,8,GR86-015-31,-0.9,0.08,0.004,100.0,5.0,,0.0,0.0,
2025-08-15T00:39:40.918Z,8,GR86-015-31,-1.0,0.097,-0.022,99.99,5.0,,0.0,0.0,
2025-08-15T00:39:40.961Z,8,GR86-015-31,-1.1,0.07,-0.02,99.98,5.0,6856.0,0.0,0.0,
2025-08-15T00:39:41.005Z,8,GR86-015-31,-1.1,0.082,-0.061,99.98,5.0,,0.0,0.0,202.69
2025-08-15T00:39:41.047Z,8,GR86-015-31,-1.1,0.073,-0.059,100.01,5.0,,0.0,0.0,
2025-08-15T00:39:41.090Z,8,GR86-015-31,-1.1,0.089,-0.028,99.99,5.0,,0.0,0.0,
2025-08-15T00:39:41.134Z,8,GR86-015-31,-1.1,0.077,-0.04,99.98,5.0,,0.0,0.0,
2025-08-15T00:39:41.176Z,8,GR86-015-31,-0.7000000000000001,0.07,-0.034,100.01,5.0,6870.0,0.0,0.0,
2025-08-15T00:39:41.219Z,8,GR86-015-31,-0.5,0.085,-0.004,99.99,5.0,,0.0,0.0,202.98
2025-08-15T00:39:41.262Z,8,GR86-015-31,-0.5,0.088,0.018,99.99,5.0,,0.0,0.0,
2025-08-15T00:39:41.305Z,8,GR86-015-31,-1.2000000000000002,0.083,0.024,100.01,5.0,,0.0,0.0,
2025-08-15T00:39:41.348Z,8,GR86-015-31,-1.5,0.11,0.0,100.02,5.0,,0.0,0.0,
2025-08-15T00:39:41.391Z,8,GR86-015-31,-1.5,0.077,-0.006,99.98,5.0,6892.0,0.0,0.0,
2025-08-15T00:39:41.435Z,8,GR86-015-31,-1.6,0.063,0.0,100.02,5.0,,0.0,0.0,203.64
2025-08-15T00:39:41.478Z,8,GR86-015-31,-1.6,0.059,-0.006,100.01,5.0,,0.0,0.0,
2025-08-15T00:39:41.521Z,8,GR86-015-31,-1.6,0.031,-0.013,100.01,5.0,,0.0,0.0,
2025-08-15T00:39:41.565Z,8,GR86-015-31,-1.4,0.066,-0.013,100.01,5.0,,0.0,0.0,
2025-08-15T00:39:41.607Z,8,GR86-015-31,-1.3,0.038,0.004,99.99,5.0,6951.0,0.0,0.0,
2025-08-15T00:39:41.650Z,8,GR86-015-31,-1.4,0.052,-0.023,100.0,5.0,,0.0,0.0,203.49
2025-08-15T00:39:41.695Z,8,GR86-015-31,-5.0,0.059,-0.029,99.99,5.0,,0.0,0.0,
2025-08-15T00:39:41.738Z,8,GR86-015-31,-5.5,0.016,-0.016,99.99,5.0,,0.0,0.0,
2025-08-15T00:39:41.781Z,8,GR86-015-31,-5.9,0.071,0.0,99.99,5.0,,0.0,0.0,
2025-08-15T00:39:41.825Z,8,GR86-015-31,-6.800000000000001,0.03,0.009,100.0,5.0,6962.0,0.0,0.0,
2025-08-15T00:39:41.868Z,8,GR86-015-31,-8.3,0.056,-0.002,99.99,5.0,,0.0,0.0,202.84
2025-08-15T00:39:41.910Z,8,GR86-015-31,-11.9,0.022,-0.01,100.0,5.0,,0.0,0.0,
2025-08-15T00:39:41.955Z,8,GR86-015-31,-17.1,-0.013,-0.078,100.02,5.0,,0.0,0.0,
2025-08-15T00:39:41.998Z,8,GR86-015-31,-17.6,0.067,-0.137,100.0,5.0,,0.0,0.0,
2025-08-15T00:39:42.041Z,8,GR86-015-31,-16.1,0.055,-0.221,100.02,5.0,6988.0,0.0,0.0,
2025-08-15T00:39:42.085Z,8,GR86-015-31,-9.6,0.057,-0.248,100.0,5.0,,0.0,0.0,202.57
2025-08-15T00:39:42.128Z,8,GR86-015-31,-4.6000000000000005,0.017,-0.235,100.01,5.0,,0.0,0.0,
2025-08-15T00:39:42.171Z,8,GR86-015-31,-3.9,0.017,-0.254,100.02,5.0,,0.0,0.0,
2025-08-15T00:39:42.215Z,8,GR86-015-31,-9.6,0.061,-0.254,100.0,5.0,,0.0,0.0,
2025-08-15T00:39:42.258Z,8,GR86-015-31,-14.4,0.016,-0.272,99.99,5.0,6968.0,0.0,0.0,
2025-08-15T00:39:42.301Z,8,GR86-015-31,-13.1,0.023,-0.234,100.0,5.0,,0.0,0.0,203.74
2025-08-15T00:39:42.345Z,8,GR86-015-31,-7.0,-0.038,-0.123,100.0,5.0,,0.0,0.0,
2025-08-15T00:39:42.388Z,8,GR86-015-31,-2.6,0.047,-0.05,100.0,5.0,,0.0,0.0,
2025-08-15T00:39:42.430Z,8,GR86-015-31,-2.5,0.03,-0.103,100.01,5.0,,0.0,0.0,
2025-08-15T00:39:42.474Z,8,GR86-015-31,-9.1,-0.03,-0.149,99.98,5.0,7032.0,0.0,0.0,
2025-08-15T00:39:42.518Z,8,GR86-015-31,-12.2,0.024,-0.126,100.0,5.0,,0.0,0.0,203.94
2025-08-15T00:39:42.561Z,8,GR86-015-31,-11.9,-0.003,-0.07,99.99,5.0,,0.0,0.0,
2025-08-15T00:39:42.647Z,8,GR86-015-31,-8.9,0.086,-0.054,99.99,5.0,,0.0,0.0,
2025-08-15T00:39:42.690Z,8,GR86-015-31,-9.1,0.069,-0.119,99.99,5.0,6990.0,0.0,0.0,
2025-08-15T00:39:42.734Z,8,GR86-015-31,-7.300000000000001,0.069,-0.208,100.01,5.0,,0.0,0.0,203.88
2025-08-15T00:39:42.776Z,8,GR86-015-31,-3.5,0.082,-0.233,100.01,5.0,,0.0,0.0,
2025-08-15T00:39:42.819Z,8,GR86-015-31,-0.5,0.102,-0.239,100.0,5.0,,0.0,0.0,
2025-08-15T00:39:42.862Z,8,GR86-015-31,1.1,0.087,-0.219,100.0,5.0,,0.0,0.0,
2025-08-15T00:39:42.905Z,8,GR86-015-31,1.2000000000000002,0.074,-0.21,100.01,5.0,6963.0,0.0,0.0,
2025-08-15T00:39:42.948Z,8,GR86-015-31,1.2000000000000002,0.073,-0.163,99.98,5.0,,0.0,0.0,204.52
2025-08-15T00:39:42.992Z,8,GR86-015-31,0.5,0.062,-0.096,99.99,5.0,,0.0,0.0,
2025-08-15T00:39:43.035Z,8,GR86-015-31,0.5,0.098,0.01,99.99,5.0,,0.0,0.0,
2025-08-15T00:39:43.078Z,8,GR86-015-31,0.5,0.058,0.078,100.0,5.0,,0.0,0.0,
2025-08-15T00:39:43.121Z,8,GR86-015-31,0.5,0.077,0.102,100.01,5.0,6953.0,0.0,0.0,
2025-08-15T00:39:43.165Z,8,GR86-015-31,0.5,0.06,0.124,100.01,5.0,,0.0,0.0,205.03
2025-08-15T00:39:43.207Z,8,GR86-015-31,0.5,0.067,0.067,100.02,5.0,,0.0,0.0,
2025-08-15T00:39:43.250Z,8,GR86-015-31,0.5,0.083,0.029,100.0,5.0,,0.0,0.0,
2025-08-15T00:39:43.295Z,8,GR86-015-31,0.5,0.069,-0.018,99.99,5.0,,0.0,0.0,
2025-08-15T00:39:43.381Z,8,GR86-015-31,0.7000000000000001,0.095,0.003,99.98,5.0,6962.0,0.0,0.0,205.5
2025-08-15T00:39:43.425Z,8,GR86-015-31,1.4,0.082,0.013,100.02,5.0,,0.0,0.0,
2025-08-15T00:39:43.468Z,8,GR86-015-31,1.7000000000000002,0.104,0.025,100.01,5.0,,0.0,0.0,
2025-08-15T00:39:43.511Z,8,GR86-015-31,1.7000000000000002,0.068,0.059,99.99,5.0,,0.0,0.0,
2025-08-15T00:39:43.554Z,8,GR86-015-31,0.9,0.103,0.052,100.01,5.0,6989.0,0.0,0.0,
2025-08-15T00:39:43.597Z,8,GR86-015-31,0.8,0.117,0.072,100.01,5.0,,0.0,0.0,206.22
2025-08-15T00:39:43.640Z,8,GR86-015-31,0.8,0.065,0.066,100.01,5.0,,0.0,0.0,
2025-08-15T00:39:43.769Z,8,GR86-015-31,0.9,0.077,0.041,100.01,5.0,6998.0,0.0,0.0,
2025-08-15T00:39:43.812Z,8,GR86-015-31,1.0,0.086,0.009,100.01,5.0,,0.0,0.0,206.56
2025-08-15T00:39:43.855Z,8,GR86-015-31,0.9,0.068,-0.005,100.0,5.0,,0.0,0.0,
2025-08-15T00:39:43.898Z,8,GR86-015-31,0.9,0.062,0.006,100.0,5.0,,0.0,0.0,
2025-08-15T00:39:43.941Z,8,GR86-015-31,1.1,0.085,0.013,100.0,5.0,,0.0,0.0,
2025-08-15T00:39:43.985Z,8,GR86-015-31,1.1,0.099,0.035,99.98,5.0,7014.0,0.0,0.0,
2025-08-15T00:39:44.028Z,8,GR86-015-31,1.1,0.092,0.049,100.0,5.0,,0.0,0.0,207.13
2025-08-15T00:39:44.070Z,8,GR86-015-31,1.1,0.103,0.065,99.99,5.0,,0.0,0.0,
2025-08-15T00:39:44.114Z,8,GR86-015-31,1.1,0.107,0.084,99.99,5.0,,0.0,0.0,
2025-08-15T00:39:44.156Z,8,GR86-015-31,1.1,0.099,0.058,100.01,5.0,,0.0,0.0,
2025-08-15T00:39:44.199Z,8,GR86-015-31,0.9,0.092,0.058,100.0,5.0,7035.0,0.0,0.0,
2025-08-15T00:39:44.242Z,8,GR86-015-31,0.8,0.091,0.039,100.01,5.0,,0.0,0.0,207.5
2025-08-15T00:39:44.285Z,8,GR86-015-31,0.8,0.077,0.028,100.02,5.0,,0.0,0.0,
2025-08-15T00:39:44.328Z,8,GR86-015-31,0.8,0.089,0.015,100.02,5.0,,0.0,0.0,
2025-08-15T00:39:44.371Z,8,GR86-015-31,0.8,0.1,0.011,100.0,5.0,,0.0,0.0,
2025-08-15T00:39:44.415Z,8,GR86-015-31,0.8,0.08,-0.029,99.99,5.0,7062.0,0.0,0.0,
2025-08-15T00:39:44.457Z,8,GR86-015-31,0.9,0.078,-0.033,99.99,5.0,,0.0,0.0,208.03
2025-08-15T00:39:44.500Z,8,GR86-015-31,0.9,0.097,-0.024,100.0,5.0,,0.0,0.0,
2025-08-15T00:39:44.545Z,8,GR86-015-31,1.0,0.099,-0.01,99.99,5.0,,0.0,0.0,
2025-08-15T00:39:44.587Z,8,GR86-015-31,1.1,0.096,0.011,100.02,5.0,,0.0,0.0,
2025-08-15T00:39:44.630Z,8,GR86-015-31,1.1,0.086,-0.001,100.01,5.0,7070.0,0.0,0.0,
2025-08-15T00:39:44.674Z,8,GR86-015-31,1.1,0.098,0.034,100.01,5.0,,0.0,0.0,208.55
2025-08-15T00:39:44.717Z,8,GR86-015-31,1.2000000000000002,0.102,0.062,100.01,5.0,,0.0,0.0,
2025-08-15T00:39:44.760Z,8,GR86-015-31,1.5,0.083,0.081,99.99,5.0,,0.0,0.0,
2025-08-15T00:39:44.804Z,8,GR86-015-31,1.6,0.094,0.096,100.02,5.0,,0.0,0.0,
2025-08-15T00:39:44.848Z,8,GR86-015-31,1.6,0.08,0.064,100.0,5.0,7098.0,0.0,0.0,
2025-08-15T00:39:44.892Z,8,GR86-015-31,1.6,0.095,0.087,99.99,5.0,,0.0,0.0,208.96
2025-08-15T00:39:44.935Z,8,GR86-015-31,1.3,0.079,0.057,100.0,5.0,,0.0,0.0,
2025-08-15T00:39:45.021Z,8,GR86-015-31,1.1,0.077,0.047,100.01,5.0,,2.165,2.135,
2025-08-15T00:39:45.065Z,8,GR86-015-31,0.7000000000000001,0.062,0.032,99.99,5.0,7102.0,4.365,4.625,
2025-08-15T00:39:45.107Z,8,GR86-015-31,0.6000000000000001,0.03,0.006,81.24,5.0,,7.495,7.645,209.35
2025-08-15T00:39:45.150Z,8,GR86-015-31,0.5,-0.037,-0.017,23.07,5.0,,9.43,9.46,
2025-08-15T00:39:45.195Z,8,GR86-015-31,0.5,-0.11,-0.057,2.83,5.0,,14.33,14.48,
2025-08-15T00:39:45.238Z,8,GR86-015-31,0.6000000000000001,-0.431,-0.052,2.8000000000000003,5.0,,21.715,21.87,
2025-08-15T00:39:45.281Z,8,GR86-015-31,0.9,-0.528,-0.027,2.75,5.0,7096.0,32.105000000000004,32.230000000000004,
2025-08-15T00:39:45.325Z,8,GR86-015-31,0.9,-0.951,-0.115,2.72,5.0,,44.225,44.055,209.56
2025-08-15T00:39:45.368Z,8,GR86-015-31,0.9,-0.867,-0.028,2.67,5.0,,53.120000000000005,52.92,
2025-08-15T00:39:45.410Z,8,GR86-015-31,1.1,-0.948,-0.021,2.66,5.0,,55.715,55.945,
2025-08-15T00:39:45.454Z,8,GR86-015-31,1.1,-0.935,-0.024,2.63,5.0,,54.05,54.98,
2025-08-15T00:39:45.497Z,8,GR86-015-31,1.1,-0.964,-0.008,2.63,5.0,6909.0,52.31,53.425,
2025-08-15T00:39:45.540Z,8,GR86-015-31,1.1,-0.928,-0.02,2.6,5.0,,51.84,52.92,207.74
2025-08-15T00:39:45.584Z,8,GR86-015-31,1.2000000000000002,-1.037,-0.012,2.6,5.0,,53.06,53.805,
2025-08-15T00:39:45.626Z,8,GR86-015-31,1.2000000000000002,-1.033,-0.014,2.59,5.0,,57.41,57.24,
2025-08-15T00:39:45.669Z,8,GR86-015-31,1.2000000000000002,-1.1,-0.049,2.57,5.0,,60.765,60.615,
2025-08-15T00:39:45.712Z,8,GR86-015-31,1.2000000000000002,-1.088,-0.033,2.56,5.0,6371.0,64.52,64.185,
2025-08-15T00:39:45.755Z,8,GR86-015-31,1.1,-1.144,-0.03,7.16,5.0,,71.615,71.4,200.61
2025-08-15T00:39:45.798Z,8,GR86-015-31,0.7000000000000001,-1.155,-0.056,50.35,4.0,,76.56,76.745,
2025-08-15T00:39:45.841Z,8,GR86-015-31,0.6000000000000001,-1.206,-0.052,28.29,4.0,,83.09,84.92,
2025-08-15T00:39:45.885Z,8,GR86-015-31,0.6000000000000001,-1.385,-0.093,4.8500000000000005,4.0,,89.15,91.5,
2025-08-15T00:39:45.928Z,8,GR86-015-31,0.6000000000000001,-1.3,-0.084,4.09,4.0,6131.0,94.015,96.395,
2025-08-15T00:39:45.970Z,8,GR86-015-31,0.8,-1.446,-0.127,3.6,4.0,,93.74,94.675,193.54
2025-08-15T00:39:46.014Z,8,GR86-015-31,2.5,-1.138,-0.06,3.15,4.0,,90.415,92.215,
2025-08-15T00:39:46.056Z,8,GR86-015-31,3.5,-1.047,-0.159,2.95,4.0,,77.675,78.805,
2025-08-15T00:39:46.099Z,8,GR86-015-31,5.4,-1.114,-0.197,2.82,4.0,,68.715,69.16,
2025-08-15T00:39:46.143Z,8,GR86-015-31,5.800000000000001,-1.134,-0.075,2.73,4.0,6538.0,68.18,69.71000000000001,
2025-08-15T00:39:46.185Z,8,GR86-015-31,5.800000000000001,-1.187,-0.228,2.69,4.0,,69.37,70.395,184.09
2025-08-15T00:39:46.229Z,8,GR86-015-31,5.800000000000001,-1.113,-0.219,2.66,4.0,,70.515,71.02,
2025-08-15T00:39:46.272Z,8,GR86-015-31,5.800000000000001,-1.249,-0.124,2.65,4.0,,76.025,77.58,
2025-08-15T00:39:46.315Z,8,GR86-015-31,4.5,-1.155,-0.215,2.62,4.0,,81.215,82.205,
2025-08-15T00:39:46.358Z,8,GR86-015-31,1.6,-1.229,-0.168,2.6,4.0,6414.0,83.12,84.355,
2025-08-15T00:39:46.402Z,8,GR86-015-31,1.3,-1.074,-0.146,2.6,4.0,,82.235,83.9,166.79
2025-08-15T00:39:46.445Z,8,GR86-015-31,1.4,-1.234,-0.197,29.59,4.0,,83.84,85.09,
2025-08-15T00:39:46.487Z,8,GR86-015-31,1.6,-1.261,-0.074,52.83,3.0,,84.355,85.18,
2025-08-15T00:39:46.530Z,8,GR86-015-31,-0.6000000000000001,-1.314,-0.075,6.1000000000000005,3.0,,82.375,84.05,
2025-08-15T00:39:46.574Z,8,GR86-015-31,-3.6,-1.273,-0.139,4.08,3.0,6128.0,67.94,69.34,
2025-08-15T00:39:46.617Z,8,GR86-015-31,-3.2,-1.275,-0.119,3.68,3.0,,63.77,64.58,156.75
2025-08-15T00:39:46.661Z,8,GR86-015-31,-4.1000000000000005,-1.096,-0.08,3.28,3.0,,63.955,65.175,
2025-08-15T00:39:46.704Z,8,GR86-015-31,-10.4,-1.063,-0.161,3.0500000000000003,3.0,,64.52,65.3,
2025-08-15T00:39:46.746Z,8,GR86-015-31,-16.7,-1.168,-0.34,2.86,3.0,,64.61,65.205,
2025-08-15T00:39:46.789Z,8,GR86-015-31,-23.1,-1.054,-0.235,2.76,3.0,6288.0,65.205,65.895,
2025-08-15T00:39:46.832Z,8,GR86-015-31,-25.8,-1.019,-0.5,2.72,3.0,,66.045,67.05,150.64
2025-08-15T00:39:46.875Z,8,GR86-015-31,-23.1,-0.932,-0.415,2.66,3.0,,62.305,62.965,
2025-08-15T00:39:46.961Z,8,GR86-015-31,-6.5,-0.869,-0.646,2.63,3.0,,41.215,42.39,
2025-08-15T00:39:47.005Z,8,GR86-015-31,-6.2,-0.783,-0.443,2.6,3.0,6285.0,35.495,36.09,
2025-08-15T00:39:47.047Z,8,GR86-015-31,-12.2,-0.863,-0.681,2.6,3.0,,35.405,35.985,143.77
2025-08-15T00:39:47.090Z,8,GR86-015-31,-28.0,-0.743,-0.68,2.58,3.0,,36.21,36.9,
2025-08-15T00:39:47.134Z,8,GR86-015-31,-41.3,-0.756,-0.879,2.56,3.0,,37.145,37.8,
2025-08-15T00:39:47.219Z,8,GR86-015-31,-32.7,-0.777,-0.811,2.53,3.0,6171.0,38.56,39.34,
2025-08-15T00:39:47.262Z,8,GR86-015-31,-26.3,-0.775,-0.857,2.53,3.0,,38.045,38.805,139.79
2025-08-15T00:39:47.305Z,8,GR86-015-31,-26.1,-0.722,-0.838,2.63,3.0,,33.435,34.03,
2025-08-15T00:39:47.348Z,8,GR86-015-31,-31.5,-0.7030000000000001,-0.8210000000000001,2.76,3.0,,26.66,27.5,
2025-08-15T00:39:47.435Z,8,GR86-015-31,-33.0,-0.596,-0.898,2.76,3.0,5943.0,17.93,18.615,
2025-08-15T00:39:47.521Z,8,GR86-015-31,-57.6,-0.152,-1.131,2.71,3.0,,1.83,2.395,134.53
2025-08-15T00:39:47.565Z,8,GR86-015-31,-66.10000000000001,-0.152,-1.174,2.69,3.0,,6.21,6.655,
2025-08-15T00:39:47.607Z,8,GR86-015-31,-68.7,-0.239,-1.189,2.67,3.0,,7.8,8.120000000000001,
2025-08-15T00:39:47.650Z,8,GR86-015-31,-67.4,-0.294,-1.238,2.65,3.0,5945.0,8.85,9.28,
2025-08-15T00:39:47.695Z,8,GR86-015-31,-54.0,-0.352,-1.249,2.85,3.0,,6.18,6.545,132.07
2025-08-15T00:39:47.738Z,8,GR86-015-31,-48.400000000000006,-0.239,-1.252,2.99,3.0,,0.0,0.0,
2025-08-15T00:39:47.781Z,8,GR86-015-31,-48.3,-0.192,-1.23,4.62,3.0,,0.0,0.0,
2025-08-15T00:39:47.825Z,8,GR86-015-31,-49.7,-0.168,-1.203,13.16,3.0,,0.0,0.0,
2025-08-15T00:39:47.868Z,8,GR86-015-31,-51.2,-0.12,-1.179,12.8,3.0,5779.0,0.0,0.0,
2025-08-15T00:39:47.910Z,8,GR86-015-31,-51.8,-0.136,-1.28,13.73,3.0,,0.0,0.0,129.5
2025-08-15T00:39:47.955Z,8,GR86-015-31,-55.900000000000006,-0.104,-1.302,9.14,3.0,,0.0,0.0,
2025-08-15T00:39:47.998Z,8,GR86-015-31,-60.2,-0.137,-1.321,7.75,3.0,,0.0,0.0,
2025-08-15T00:39:48.041Z,8,GR86-015-31,-63.5,-0.122,-1.271,7.27,3.0,,0.0,0.0,
2025-08-15T00:39:48.128Z,8,GR86-015-31,-64.7,-0.103,-1.29,10.11,3.0,5773.0,0.0,0.0,128.0
2025-08-15T00:39:48.171Z,8,GR86-015-31,-64.8,-0.123,-1.327,22.95,3.0,,0.0,0.0,
2025-08-15T00:39:48.215Z,8,GR86-015-31,-64.4,-0.128,-1.322,31.23,3.0,,0.0,0.0,
2025-08-15T00:39:48.257Z,8,GR86-015-31,-60.2,-0.082,-1.306,58.32,3.0,,0.0,0.0,
2025-08-15T00:39:48.300Z,8,GR86-015-31,-57.1,-0.085,-1.281,98.23,3.0,5692.0,0.0,0.0,
2025-08-15T00:39:48.344Z,8,GR86-015-31,-57.0,0.166,-1.248,100.12,3.0,,0.0,0.0,126.29
2025-08-15T00:39:48.386Z,8,GR86-015-31,-57.0,0.196,-1.315,100.11,3.0,,0.0,0.0,
2025-08-15T00:39:48.430Z,8,GR86-015-31,-56.5,0.221,-1.251,100.1,3.0,,0.0,0.0,
2025-08-15T00:39:48.472Z,8,GR86-015-31,-51.2,0.208,-1.219,100.11,3.0,,0.0,0.0,
2025-08-15T00:39:48.515Z,8,GR86-015-31,-26.4,0.204,-1.263,100.08,3.0,6025.0,0.0,0.0,
2025-08-15T00:39:48.558Z,8,GR86-015-31,-9.5,0.202,-1.296,100.08,3.0,,0.0,0.0,124.64
2025-08-15T00:39:48.601Z,8,GR86-015-31,-1.0,0.244,-1.243,100.11,3.0,,0.0,0.0,
2025-08-15T00:39:48.645Z,8,GR86-015-31,1.6,0.25,-1.255,100.11,3.0,,0.0,0.0,
2025-08-15T00:39:48.688Z,8,GR86-015-31,2.1,0.223,-1.291,100.11,3.0,,0.0,0.0,
2025-08-15T00:39:48.730Z,8,GR86-015-31,-5.5,0.241,-1.185,100.13,3.0,5992.0,0.0,0.0,
2025-08-15T00:39:48.774Z,8,GR86-015-31,-29.5,0.245,-1.128,100.12,3.0,,0.0,0.0,124.35
2025-08-15T00:39:48.818Z,8,GR86-015-31,-39.8,0.217,-1.299,100.11,3.0,,0.0,0.0,
2025-08-15T00:39:48.905Z,8,GR86-015-31,-17.7,0.207,-1.327,100.09,3.0,,0.0,0.0,
2025-08-15T00:39:48.947Z,8,GR86-015-31,15.3,0.303,-1.279,100.06,3.0,6015.0,0.0,0.0,
2025-08-15T00:39:48.990Z,8,GR86-015-31,35.4,0.262,-1.065,100.08,3.0,,0.0,0.0,125.29
2025-08-15T00:39:49.034Z,8,GR86-015-31,12.8,0.246,-0.865,100.14,3.0,,0.0,0.0,
2025-08-15T00:39:49.076Z,8,GR86-015-31,-21.4,0.272,-0.973,100.17,3.0,,0.0,0.0,
2025-08-15T00:39:49.119Z,8,GR86-015-31,-48.5,0.277,-1.105,100.13,3.0,,0.0,0.0,
2025-08-15T00:39:49.162Z,8,GR86-015-31,-63.2,0.216,-1.097,100.11,3.0,6010.0,0.0,0.0,
2025-08-15T00:39:49.205Z,8,GR86-015-31,-66.8,0.174,-1.054,100.1,3.0,,0.0,0.0,125.9
2025-08-15T00:39:49.249Z,8,GR86-015-31,-67.2,0.171,-0.993,100.1,3.0,,0.0,0.0,
2025-08-15T00:39:49.292Z,8,GR86-015-31,-68.60000000000001,0.214,-1.026,100.11,3.0,,0.0,0.0,
2025-08-15T00:39:49.335Z,8,GR86-015-31,-69.9,0.173,-1.055,100.09,3.0,,0.0,0.0,
2025-08-15T00:39:49.378Z,8,GR86-015-31,-69.7,0.15,-1.074,100.09,3.0,5925.0,0.0,0.0,
2025-08-15T00:39:49.421Z,8,GR86-015-31,-63.8,0.144,-1.123,100.08,3.0,,0.0,0.0,126.72
2025-08-15T00:39:49.465Z,8,GR86-015-31,-48.8,0.167,-1.183,100.08,3.0,,0.0,0.0,
2025-08-15T00:39:49.507Z,8,GR86-015-31,-31.700000000000003,0.222,-1.192,100.07,3.0,,0.0,0.0,
2025-08-15T00:39:49.550Z,8,GR86-015-31,-23.9,0.221,-1.089,100.09,3.0,,0.0,0.0,
2025-08-15T00:39:49.595Z,8,GR86-015-31,-25.5,0.23,-1.121,100.11,3.0,6115.0,0.0,0.0,
2025-08-15T00:39:49.638Z,8,GR86-015-31,-27.9,0.229,-1.147,100.08,3.0,,0.0,0.0,129.68
2025-08-15T00:39:49.681Z,8,GR86-015-31,-25.8,0.221,-1.198,100.08,3.0,,0.0,0.0,
2025-08-15T00:39:49.725Z,8,GR86-015-31,-29.200000000000003,0.24,-1.153,100.1,3.0,,0.0,0.0,
2025-08-15T00:39:49.768Z,8,GR86-015-31,-41.5,0.241,-1.134,100.11,3.0,,0.0,0.0,
2025-08-15T00:39:49.810Z,8,GR86-015-31,-56.7,0.229,-1.12,100.11,3.0,6132.0,0.0,0.0,
2025-08-15T00:39:49.854Z,8,GR86-015-31,-65.60000000000001,0.201,-1.096,100.09,3.0,,0.0,0.0,130.41
2025-08-15T00:39:49.896Z,8,GR86-015-31,-64.8,0.156,-1.143,100.08,3.0,,0.0,0.0,
2025-08-15T00:39:49.939Z,8,GR86-015-31,-61.5,0.187,-1.151,100.06,3.0,,0.0,0.0,
2025-08-15T00:39:49.982Z,8,GR86-015-31,-59.1,0.207,-1.215,100.06,3.0,,0.0,0.0,
2025-08-15T00:39:50.025Z,8,GR86-015-31,-55.400000000000006,0.193,-1.196,100.04,3.0,6179.0,0.0,0.0,
2025-08-15T00:39:50.069Z,8,GR86-015-31,-53.2,0.177,-1.143,100.05,3.0,,0.0,0.0,130.17000000000002
2025-08-15T00:39:50.112Z,8,GR86-015-31,-53.2,0.206,-1.16,100.07,3.0,,0.0,0.0,
2025-08-15T00:39:50.155Z,8,GR86-015-31,-53.900000000000006,0.193,-1.196,100.06,3.0,,0.0,0.0,
2025-08-15T00:39:50.198Z,8,GR86-015-31,-51.400000000000006,0.21,-1.26,100.05,3.0,,0.0,0.0,
2025-08-15T00:39:50.241Z,8,GR86-015-31,-42.6,0.199,-1.284,100.05,3.0,6234.0,0.0,0.0,
2025-08-15T00:39:50.285Z,8,GR86-015-31,-30.3,0.18,-1.216,100.04,3.0,,0.0,0.0,132.42000000000002
2025-08-15T00:39:50.328Z,8,GR86-015-31,-25.200000000000003,0.235,-1.144,100.04,3.0,,0.0,0.0,
2025-08-15T00:39:50.370Z,8,GR86-015-31,-27.3,0.239,-1.147,100.09,3.0,,0.0,0.0,
2025-08-15T00:39:50.414Z,8,GR86-015-31,-41.5,0.243,-1.13,100.08,3.0,,0.0,0.0,
2025-08-15T00:39:50.456Z,8,GR86-015-31,-48.2,0.222,-1.122,100.07,3.0,6269.0,0.0,0.0,
2025-08-15T00:39:50.499Z,8,GR86-015-31,-50.400000000000006,0.187,-1.089,100.05,3.0,,0.0,0.0,133.55
2025-08-15T00:39:50.542Z,8,GR86-015-31,-50.400000000000006,0.197,-1.119,100.05,3.0,,0.0,0.0,
2025-08-15T00:39:50.585Z,8,GR86-015-31,-49.8,0.213,-1.014,100.04,3.0,,0.0,0.0,
2025-08-15T00:39:50.628Z,8,GR86-015-31,-50.0,0.152,-0.8240000000000001,100.04,3.0,,0.0,0.0,
2025-08-15T00:39:50.671Z,8,GR86-015-31,-47.900000000000006,0.08,-0.494,100.04,3.0,6296.0,0.0,0.0,
2025-08-15T00:39:50.715Z,8,GR86-015-31,-40.0,0.142,-0.593,100.03,3.0,,0.0,0.0,133.4
2025-08-15T00:39:50.758Z,8,GR86-015-31,-33.300000000000004,0.214,-0.429,100.04,3.0,,0.0,0.0,
2025-08-15T00:39:50.801Z,8,GR86-015-31,-29.4,0.101,-0.469,100.03,3.0,,0.0,0.0,
2025-08-15T00:39:50.845Z,8,GR86-015-31,-28.8,0.104,-0.666,100.03,3.0,,0.0,0.0,
2025-08-15T00:39:50.887Z,8,GR86-015-31,-28.6,0.13,-0.969,100.06,3.0,6456.0,0.0,0.0,
2025-08-15T00:39:50.930Z,8,GR86-015-31,-28.3,0.254,-1.077,100.04,3.0,,0.0,0.0,133.92000000000002
2025-08-15T00:39:50.974Z,8,GR86-015-31,-29.700000000000003,0.191,-1.332,100.02,3.0,,0.0,0.0,
2025-08-15T00:39:51.017Z,8,GR86-015-31,-34.6,0.283,-1.223,100.02,3.0,,0.0,0.0,
2025-08-15T00:39:51.060Z,8,GR86-015-31,-39.400000000000006,0.222,-1.134,100.05,3.0,,0.0,0.0,
2025-08-15T00:39:51.148Z,8,GR86-015-31,-39.1,0.172,-1.101,100.01,3.0,6477.0,0.0,0.0,135.2
2025-08-15T00:39:51.191Z,8,GR86-015-31,-37.7,0.125,-1.461,100.02,3.0,,0.0,0.0,
2025-08-15T00:39:51.235Z,8,GR86-015-31,-41.400000000000006,0.258,-1.325,100.04,3.0,,0.0,0.0,
2025-08-15T00:39:51.278Z,8,GR86-015-31,-44.2,0.2,-1.215,99.99,3.0,,0.0,0.0,
2025-08-15T00:39:51.321Z,8,GR86-015-31,-44.6,0.184,-1.076,99.99,3.0,6572.0,0.0,0.0,
2025-08-15T00:39:51.365Z,8,GR86-015-31,-45.0,0.185,-0.943,99.99,3.0,,0.0,0.0,137.34
2025-08-15T00:39:51.407Z,8,GR86-015-31,-46.900000000000006,0.261,-0.861,99.99,3.0,,0.0,0.0,
2025-08-15T00:39:51.450Z,8,GR86-015-31,-48.0,0.216,-1.012,99.99,3.0,,0.0,0.0,
2025-08-15T00:39:51.538Z,8,GR86-015-31,-42.8,0.18,-0.977,100.01,3.0,6549.0,0.0,0.0,
2025-08-15T00:39:51.625Z,8,GR86-015-31,-34.4,0.207,-1.079,99.99,3.0,,0.0,0.0,137.14
2025-08-15T00:39:51.668Z,8,GR86-015-31,-22.5,0.204,-1.173,99.98,3.0,,0.0,0.0,
2025-08-15T00:39:51.710Z,8,GR86-015-31,-22.4,0.288,-1.12,99.99,3.0,,0.0,0.0,
2025-08-15T00:39:51.754Z,8,GR86-015-31,-25.9,0.263,-0.938,100.0,3.0,6572.0,0.0,0.0,
2025-08-15T00:39:51.797Z,8,GR86-015-31,-29.3,0.204,-0.975,99.99,3.0,,0.0,0.0,139.68
2025-08-15T00:39:51.840Z,8,GR86-015-31,-32.5,0.237,-0.875,100.0,3.0,,0.0,0.0,
2025-08-15T00:39:51.884Z,8,GR86-015-31,-33.9,0.246,-0.862,100.0,3.0,,0.0,0.0,
2025-08-15T00:39:51.926Z,8,GR86-015-31,-33.7,0.246,-0.8260000000000001,99.99,3.0,,0.0,0.0,
2025-08-15T00:39:51.969Z,8,GR86-015-31,-32.0,0.186,-0.879,100.0,3.0,6593.0,0.0,0.0,
2025-08-15T00:39:52.012Z,8,GR86-015-31,-28.9,0.208,-0.739,99.99,3.0,,0.0,0.0,140.19
2025-08-15T00:39:52.055Z,8,GR86-015-31,-24.4,0.222,-0.776,100.01,3.0,,0.0,0.0,
2025-08-15T00:39:52.098Z,8,GR86-015-31,-21.0,0.18,-0.766,99.99,3.0,,0.0,0.0,
2025-08-15T00:39:52.141Z,8,GR86-015-31,-17.8,0.239,-0.6890000000000001,100.01,3.0,,0.0,0.0,
2025-08-15T00:39:52.185Z,8,GR86-015-31,-16.3,0.257,-0.798,99.99,3.0,6625.0,0.0,0.0,
2025-08-15T00:39:52.228Z,8,GR86-015-31,-16.400000000000002,0.283,-0.7020000000000001,99.99,3.0,,0.0,0.0,141.78
2025-08-15T00:39:52.272Z,8,GR86-015-31,-16.6,0.198,-0.529,100.01,3.0,,0.0,0.0,
2025-08-15T00:39:52.315Z,8,GR86-015-31,-13.2,0.179,-0.607,99.99,3.0,,0.0,0.0,
2025-08-15T00:39:52.358Z,8,GR86-015-31,-7.0,0.244,-0.452,100.01,3.0,,0.0,0.0,
2025-08-15T00:39:52.401Z,8,GR86-015-31,-2.9000000000000004,0.247,-0.299,100.0,3.0,6773.0,0.0,0.0,
2025-08-15T00:39:52.445Z,8,GR86-015-31,-2.3000000000000003,0.218,-0.272,100.01,3.0,,0.0,0.0,143.1
2025-08-15T00:39:52.488Z,8,GR86-015-31,-2.4000000000000004,0.157,-0.112,100.01,3.0,,0.0,0.0,
2025-08-15T00:39:52.530Z,8,GR86-015-31,-1.9,0.079,-0.117,99.99,3.0,,0.0,0.0,
2025-08-15T00:39:52.574Z,8,GR86-015-31,3.6,0.186,-0.193,99.98,3.0,,0.0,0.0,
2025-08-15T00:39:52.616Z,8,GR86-015-31,6.4,0.367,-0.216,99.99,3.0,7063.0,0.0,0.0,
2025-08-15T00:39:52.659Z,8,GR86-015-31,7.6,0.202,-0.079,100.02,3.0,,0.0,0.0,143.99
2025-08-15T00:39:52.704Z,8,GR86-015-31,7.9,0.156,-0.009,100.0,3.0,,0.0,0.0,
2025-08-15T00:39:52.746Z,8,GR86-015-31,8.0,0.079,-0.065,100.0,3.0,,0.0,0.0,
2025-08-15T00:39:52.789Z,8,GR86-015-31,8.0,0.283,0.037,99.98,3.0,,0.0,0.0,
2025-08-15T00:39:52.876Z,8,GR86-015-31,8.4,0.176,0.176,99.99,3.0,6952.0,0.0,0.0,146.4
2025-08-15T00:39:52.919Z,8,GR86-015-31,8.3,0.144,0.28,100.0,3.0,,0.0,0.0,
2025-08-15T00:39:53.005Z,8,GR86-015-31,7.0,0.177,0.349,100.01,3.0,,0.0,0.0,
2025-08-15T00:39:53.048Z,8,GR86-015-31,5.800000000000001,0.162,0.38,99.99,3.0,7016.0,0.0,0.0,
2025-08-15T00:39:53.135Z,8,GR86-015-31,5.6000000000000005,0.194,0.319,100.0,3.0,,0.0,0.0,147.45000000000002
2025-08-15T00:39:53.178Z,8,GR86-015-31,5.6000000000000005,0.189,0.308,100.0,3.0,,0.0,0.0,
2025-08-15T00:39:53.220Z,8,GR86-015-31,5.6000000000000005,0.191,0.276,100.01,3.0,,0.0,0.0,
2025-08-15T00:39:53.306Z,8,GR86-015-31,5.6000000000000005,0.259,0.225,100.01,3.0,6981.0,0.0,0.0,149.06
2025-08-15T00:39:53.349Z,8,GR86-015-31,5.5,0.212,0.152,100.01,3.0,,0.0,0.0,
2025-08-15T00:39:53.395Z,8,GR86-015-31,5.5,0.235,0.159,99.99,3.0,,0.0,0.0,
2025-08-15T00:39:53.438Z,8,GR86-015-31,5.5,0.236,0.141,99.98,3.0,,0.0,0.0,
2025-08-15T00:39:53.481Z,8,GR86-015-31,5.5,0.216,0.143,100.0,3.0,7059.0,0.0,0.0,
2025-08-15T00:39:53.525Z,8,GR86-015-31,5.5,0.196,0.19,100.02,3.0,,0.0,0.0,150.68
2025-08-15T00:39:53.568Z,8,GR86-015-31,5.5,0.207,0.192,100.0,3.0,,0.0,0.0,
2025-08-15T00:39:53.610Z,8,GR86-015-31,5.5,0.227,0.206,99.99,3.0,,0.0,0.0,
2025-08-15T00:39:53.698Z,8,GR86-015-31,5.5,0.21,0.191,100.01,3.0,7149.0,0.0,0.0,
2025-08-15T00:39:53.741Z,8,GR86-015-31,5.4,0.221,0.198,100.0,3.0,,0.0,0.0,152.26
2025-08-15T00:39:53.785Z,8,GR86-015-31,5.4,0.238,0.189,99.98,3.0,,0.0,0.0,
2025-08-15T00:39:53.871Z,8,GR86-015-31,5.300000000000001,0.054,0.176,99.98,4.0,,0.0,0.0,
2025-08-15T00:39:53.915Z,8,GR86-015-31,5.2,0.33,0.083,99.98,4.0,7233.0,0.0,0.0,
2025-08-15T00:39:53.958Z,8,GR86-015-31,5.2,0.253,0.115,99.98,4.0,,0.0,0.0,153.83
2025-08-15T00:39:54.001Z,8,GR86-015-31,5.1000000000000005,0.086,0.19,100.0,4.0,,0.0,0.0,
2025-08-15T00:39:54.045Z,8,GR86-015-31,5.0,0.135,0.126,99.98,4.0,,0.0,0.0,
2025-08-15T00:39:54.088Z,8,GR86-015-31,5.0,0.231,0.185,99.99,4.0,,0.0,0.0,
2025-08-15T00:39:54.174Z,8,GR86-015-31,5.0,0.143,0.149,100.03,4.0,6035.0,0.0,0.0,155.27
2025-08-15T00:39:54.218Z,8,GR86-015-31,5.1000000000000005,0.179,0.198,99.98,4.0,,0.0,0.0,
2025-08-15T00:39:54.261Z,8,GR86-015-31,5.1000000000000005,0.196,0.192,100.01,4.0,,0.0,0.0,
2025-08-15T00:39:54.389Z,8,GR86-015-31,5.2,0.201,0.235,99.99,4.0,6176.0,0.0,0.0,157.14
2025-08-15T00:39:54.432Z,8,GR86-015-31,5.4,0.201,0.254,100.02,4.0,,0.0,0.0,
2025-08-15T00:39:54.475Z,8,GR86-015-31,5.6000000000000005,0.201,0.298,99.99,4.0,,0.0,0.0,
2025-08-15T00:39:54.518Z,8,GR86-015-31,5.7,0.197,0.286,100.0,4.0,,0.0,0.0,
2025-08-15T00:39:54.561Z,8,GR86-015-31,5.7,0.21,0.266,100.0,4.0,6267.0,0.0,0.0,
2025-08-15T00:39:54.605Z,8,GR86-015-31,5.7,0.192,0.274,100.02,4.0,,0.0,0.0,160.48
2025-08-15T00:39:54.647Z,8,GR86-015-31,5.7,0.2,0.269,99.99,4.0,,0.0,0.0,
2025-08-15T00:39:54.690Z,8,GR86-015-31,5.7,0.181,0.264,100.0,4.0,,0.0,0.0,
2025-08-15T00:39:54.734Z,8,GR86-015-31,5.7,0.197,0.258,99.99,4.0,,0.0,0.0,
2025-08-15T00:39:54.776Z,8,GR86-015-31,5.7,0.2,0.25,99.99,4.0,6335.0,0.0,0.0,
2025-08-15T00:39:54.819Z,8,GR86-015-31,5.7,0.194,0.242,99.99,4.0,,0.0,0.0,162.17000000000002
2025-08-15T00:39:54.862Z,8,GR86-015-31,5.6000000000000005,0.178,0.245,100.01,4.0,,0.0,0.0,
2025-08-15T00:39:54.905Z,8,GR86-015-31,5.6000000000000005,0.187,0.253,100.02,4.0,,0.0,0.0,
2025-08-15T00:39:54.948Z,8,GR86-015-31,5.6000000000000005,0.182,0.238,100.01,4.0,,0.0,0.0,
2025-08-15T00:39:54.991Z,8,GR86-015-31,5.6000000000000005,0.183,0.221,99.98,4.0,6391.0,0.0,0.0,
2025-08-15T00:39:55.035Z,8,GR86-015-31,5.6000000000000005,0.191,0.217,100.01,4.0,,0.0,0.0,163.82
2025-08-15T00:39:55.078Z,8,GR86-015-31,5.5,0.167,0.233,100.01,4.0,,0.0,0.0,
2025-08-15T00:39:55.121Z,8,GR86-015-31,5.5,0.189,0.209,100.01,4.0,,0.0,0.0,
2025-08-15T00:39:55.165Z,8,GR86-015-31,5.5,0.164,0.18,99.99,4.0,,0.0,0.0,
2025-08-15T00:39:55.207Z,8,GR86-015-31,5.5,0.171,0.202,99.99,4.0,6503.0,0.0,0.0,
2025-08-15T00:39:55.250Z,8,GR86-015-31,5.5,0.185,0.189,100.0,4.0,,0.0,0.0,165.46
2025-08-15T00:39:55.295Z,8,GR86-015-31,5.5,0.178,0.187,100.0,4.0,,0.0,0.0,
2025-08-15T00:39:55.338Z,8,GR86-015-31,5.4,0.177,0.18,100.0,4.0,,0.0,0.0,
2025-08-15T00:39:55.381Z,8,GR86-015-31,5.0,0.178,0.179,99.98,4.0,,0.0,0.0,
2025-08-15T00:39:55.425Z,8,GR86-015-31,3.7,0.184,0.173,99.99,4.0,6578.0,0.0,0.0,
2025-08-15T00:39:55.468Z,8,GR86-015-31,2.0,0.194,0.148,99.99,4.0,,0.0,0.0,167.06
2025-08-15T00:39:55.510Z,8,GR86-015-31,0.5,0.174,0.122,100.02,4.0,,0.0,0.0,
2025-08-15T00:39:55.554Z,8,GR86-015-31,-0.3,0.181,0.07,100.01,4.0,,0.0,0.0,
2025-08-15T00:39:55.597Z,8,GR86-015-31,-0.5,0.197,0.029,99.99,4.0,,0.0,0.0,
2025-08-15T00:39:55.640Z,8,GR86-015-31,-0.9,0.174,-0.004,99.99,4.0,6638.0,0.0,0.0,
2025-08-15T00:39:55.684Z,8,GR86-015-31,-1.3,0.182,-0.037,99.99,4.0,,0.0,0.0,168.81
2025-08-15T00:39:55.726Z,8,GR86-015-31,-1.4,0.193,-0.065,100.0,4.0,,0.0,0.0,
2025-08-15T00:39:55.769Z,8,GR86-015-31,-1.4,0.186,-0.096,99.99,4.0,,0.0,0.0,
2025-08-15T00:39:55.812Z,8,GR86-015-31,-1.4,0.187,-0.099,100.0,4.0,,0.0,0.0,
2025-08-15T00:39:55.855Z,8,GR86-015-31,-1.3,0.179,-0.095,100.0,4.0,6694.0,0.0,0.0,
2025-08-15T00:39:55.941Z,8,GR86-015-31,-1.5,0.172,-0.073,100.01,4.0,,0.0,0.0,170.36
2025-08-15T00:39:55.985Z,8,GR86-015-31,-5.300000000000001,0.17,-0.092,99.99,4.0,,0.0,0.0,
2025-08-15T00:39:56.028Z,8,GR86-015-31,-7.5,0.187,-0.118,100.0,4.0,,0.0,0.0,
2025-08-15T00:39:56.070Z,8,GR86-015-31,-8.9,0.175,-0.153,99.99,4.0,6758.0,0.0,0.0,
2025-08-15T00:39:56.114Z,8,GR86-015-31,-9.1,0.142,-0.225,100.02,4.0,,0.0,0.0,171.92000000000002
2025-08-15T00:39:56.158Z,8,GR86-015-31,-9.1,0.155,-0.281,100.01,4.0,,0.0,0.0,
2025-08-15T00:39:56.200Z,8,GR86-015-31,-9.1,0.157,-0.298,99.99,4.0,,0.0,0.0,
2025-08-15T00:39:56.245Z,8,GR86-015-31,-9.1,0.155,-0.321,99.99,4.0,,0.0,0.0,
2025-08-15T00:39:56.287Z,8,GR86-015-31,-9.1,0.164,-0.343,100.0,4.0,6810.0,0.0,0.0,
2025-08-15T00:39:56.330Z,8,GR86-015-31,-9.0,0.154,-0.377,100.0,4.0,,0.0,0.0,173.31
2025-08-15T00:39:56.374Z,8,GR86-015-31,-8.6,0.16,-0.384,99.98,4.0,,0.0,0.0,
2025-08-15T00:39:56.460Z,8,GR86-015-31,-8.5,0.166,-0.39,100.01,4.0,,0.0,0.0,
2025-08-15T00:39:56.504Z,8,GR86-015-31,-8.4,0.16,-0.373,100.01,4.0,6875.0,0.0,0.0,
2025-08-15T00:39:56.548Z,8,GR86-015-31,-8.6,0.139,-0.331,99.99,4.0,,0.0,0.0,174.62
2025-08-15T00:39:56.591Z,8,GR86-015-31,-8.8,0.145,-0.325,99.98,4.0,,0.0,0.0,
2025-08-15T00:39:56.635Z,8,GR86-015-31,-8.4,0.16,-0.322,99.99,4.0,,0.0,0.0,
2025-08-15T00:39:56.678Z,8,GR86-015-31,-7.4,0.194,-0.313,100.01,4.0,,0.0,0.0,
2025-08-15T00:39:56.765Z,8,GR86-015-31,-6.300000000000001,0.185,-0.28,100.02,4.0,6921.0,0.0,0.0,176.12
2025-08-15T00:39:56.807Z,8,GR86-015-31,-6.7,0.171,-0.243,100.01,4.0,,0.0,0.0,
2025-08-15T00:39:56.850Z,8,GR86-015-31,-8.3,0.185,-0.233,100.0,4.0,,0.0,0.0,
2025-08-15T00:39:56.895Z,8,GR86-015-31,-11.9,0.146,-0.29,99.99,4.0,,0.0,0.0,
2025-08-15T00:39:56.981Z,8,GR86-015-31,-14.3,0.144,-0.379,99.99,4.0,6971.0,0.0,0.0,177.48
2025-08-15T00:39:57.025Z,8,GR86-015-31,-14.5,0.142,-0.427,100.0,4.0,,0.0,0.0,
2025-08-15T00:39:57.110Z,8,GR86-015-31,-14.2,0.119,-0.519,98.86,4.0,,8.425,8.700000000000001,
2025-08-15T00:39:57.154Z,8,GR86-015-31,-12.1,-0.05,-0.5650000000000001,8.48,4.0,7028.0,23.62,23.96,
2025-08-15T00:39:57.197Z,8,GR86-015-31,-7.9,-0.301,-0.484,2.72,4.0,,35.985,36.03,179.87
2025-08-15T00:39:57.240Z,8,GR86-015-31,-5.2,-0.639,-0.422,2.73,4.0,,45.78,45.69,
2025-08-15T00:39:57.284Z,8,GR86-015-31,-4.0,-0.898,-0.301,2.71,4.0,,57.685,57.56,
2025-08-15T00:39:57.369Z,8,GR86-015-31,-3.4000000000000004,-1.028,-0.251,2.71,4.0,7048.0,68.96000000000001,68.655,
2025-08-15T00:39:57.412Z,8,GR86-015-31,-3.6,-1.209,-0.243,2.66,4.0,,82.525,84.355,175.99
2025-08-15T00:39:57.455Z,8,GR86-015-31,-4.1000000000000005,-1.309,-0.267,2.65,4.0,,84.175,85.38,
2025-08-15T00:39:57.498Z,8,GR86-015-31,-3.5,-1.136,-0.22,2.63,4.0,,88.615,90.23,
2025-08-15T00:39:57.541Z,8,GR86-015-31,-1.7000000000000002,-1.323,-0.298,2.62,4.0,,93.145,93.36,
2025-08-15T00:39:57.585Z,8,GR86-015-31,-0.1,-1.262,-0.246,2.61,4.0,6444.0,98.49,99.235,
2025-08-15T00:39:57.670Z,8,GR86-015-31,3.8,-1.4,-0.189,48.31,3.0,,106.27,108.56,167.92000000000002
2025-08-15T00:39:57.714Z,8,GR86-015-31,3.6,-1.452,-0.127,6.83,3.0,,110.27,112.025,
2025-08-15T00:39:57.756Z,8,GR86-015-31,-1.6,-1.351,-0.169,4.44,3.0,,110.465,113.105,
2025-08-15T00:39:57.842Z,8,GR86-015-31,-4.7,-1.691,-0.26,3.48,3.0,6315.0,103.69,104.835,158.48
2025-08-15T00:39:57.885Z,8,GR86-015-31,-3.8,-1.398,-0.07,3.2,3.0,,96.81,98.87,
2025-08-15T00:39:57.928Z,8,GR86-015-31,-3.0,-1.139,-0.278,2.97,3.0,,79.69,80.62,
2025-08-15T00:39:58.015Z,8,GR86-015-31,-3.0,-1.213,-0.201,2.83,3.0,6511.0,59.24,60.14,
2025-08-15T00:39:58.058Z,8,GR86-015-31,1.6,-1.009,-0.254,2.66,3.0,,54.14,54.77,147.86
2025-08-15T00:39:58.101Z,8,GR86-015-31,1.6,-1.08,-0.043,2.64,3.0,,57.41,57.715,
2025-08-15T00:39:58.145Z,8,GR86-015-31,0.3,-1.087,-0.163,2.63,3.0,,58.095,58.735,
2025-08-15T00:39:58.232Z,8,GR86-015-31,-3.3000000000000003,-1.111,-0.114,2.6,3.0,6311.0,54.585,56.065,
2025-08-15T00:39:58.275Z,8,GR86-015-31,-4.0,-1.037,-0.202,2.59,3.0,,50.815,52.115,142.33
2025-08-15T00:39:58.318Z,8,GR86-015-31,-4.4,-1.066,-0.135,2.57,3.0,,49.96,50.97,
2025-08-15T00:39:58.361Z,8,GR86-015-31,-4.6000000000000005,-1.082,-0.169,5.62,3.0,,46.205,47.55,
2025-08-15T00:39:58.490Z,8,GR86-015-31,-6.5,-0.903,-0.201,95.14,3.0,5890.0,36.775,37.42,134.85
2025-08-15T00:39:58.534Z,8,GR86-015-31,-18.0,-1.035,-0.389,30.06,2.0,,37.92,38.655,
2025-08-15T00:39:58.576Z,8,GR86-015-31,-20.1,-1.004,-0.369,3.37,2.0,,40.3,41.49,
2025-08-15T00:39:58.619Z,8,GR86-015-31,-20.6,-0.875,-0.505,2.61,2.0,,42.025,42.775,
2025-08-15T00:39:58.662Z,8,GR86-015-31,-20.700000000000003,-1.077,-0.66,2.53,2.0,6591.0,41.675,42.575,
2025-08-15T00:39:58.748Z,8,GR86-015-31,-20.5,-0.865,-0.581,2.5,2.0,,40.655,41.34,128.91
2025-08-15T00:39:58.791Z,8,GR86-015-31,-20.3,-0.904,-0.786,2.5,2.0,,40.025,40.96,
2025-08-15T00:39:58.835Z,8,GR86-015-31,-20.200000000000003,-0.806,-0.596,2.49,2.0,,38.865,39.785,
2025-08-15T00:39:58.878Z,8,GR86-015-31,-21.6,-0.836,-0.892,2.49,2.0,6705.0,37.675,38.5,
2025-08-15T00:39:58.921Z,8,GR86-015-31,-22.200000000000003,-0.7000000000000001,-0.8280000000000001,2.49,2.0,,36.67,37.645,123.87
2025-08-15T00:39:58.965Z,8,GR86-015-31,-19.5,-0.716,-0.794,2.48,2.0,,35.74,36.775,
2025-08-15T00:39:59.007Z,8,GR86-015-31,-11.5,-0.768,-0.842,2.48,2.0,,35.86,36.67,
2025-08-15T00:39:59.050Z,8,GR86-015-31,-7.7,-0.872,-0.626,2.48,2.0,,36.245,36.96,
2025-08-15T00:39:59.095Z,8,GR86-015-31,-12.2,-0.81,-0.705,2.48,2.0,6201.0,36.425,37.42,
2025-08-15T00:39:59.138Z,8,GR86-015-31,-20.700000000000003,-0.857,-0.737,2.48,2.0,,36.18,37.08,118.14
2025-08-15T00:39:59.181Z,8,GR86-015-31,-29.700000000000003,-0.811,-0.74,2.49,2.0,,35.86,36.61,
2025-08-15T00:39:59.225Z,8,GR86-015-31,-35.5,-0.799,-0.8130000000000001,2.51,2.0,,31.895,32.96,
2025-08-15T00:39:59.268Z,8,GR86-015-31,-35.5,-0.647,-0.8260000000000001,2.61,2.0,,21.41,22.16,
2025-08-15T00:39:59.310Z,8,GR86-015-31,-36.5,-0.656,-0.852,4.54,2.0,6000.0,9.25,9.6,
2025-08-15T00:39:59.355Z,8,GR86-015-31,-48.5,-0.256,-0.939,4.66,2.0,,0.0,0.0,112.5
2025-08-15T00:39:59.398Z,8,GR86-015-31,-57.400000000000006,-0.194,-1.067,4.64,2.0,,0.0,0.0,
2025-08-15T00:39:59.441Z,8,GR86-015-31,-64.9,-0.185,-1.053,4.63,2.0,,0.0,0.0,
2025-08-15T00:39:59.485Z,8,GR86-015-31,-68.5,-0.119,-1.071,4.6000000000000005,2.0,,0.0,0.0,
2025-08-15T00:39:59.528Z,8,GR86-015-31,-68.2,-0.147,-1.169,5.36,2.0,5876.0,0.0,0.0,
2025-08-15T00:39:59.571Z,8,GR86-015-31,-63.400000000000006,-0.144,-1.087,18.45,2.0,,0.0,0.0,107.84
2025-08-15T00:39:59.615Z,8,GR86-015-31,-62.3,-0.131,-1.122,23.6,2.0,,0.0,0.0,
2025-08-15T00:39:59.657Z,8,GR86-015-31,-64.4,-0.107,-1.173,25.15,2.0,,0.0,0.0,
2025-08-15T00:39:59.700Z,8,GR86-015-31,-66.7,-0.064,-1.142,31.12,2.0,,0.0,0.0,
2025-08-15T00:39:59.745Z,8,GR86-015-31,-66.60000000000001,-0.065,-1.17,32.75,2.0,5870.0,0.0,0.0,
2025-08-15T00:39:59.788Z,8,GR86-015-31,-60.400000000000006,0.086,-1.179,33.28,2.0,,0.0,0.0,106.22
2025-08-15T00:39:59.830Z,8,GR86-015-31,-48.5,0.304,-1.118,35.58,2.0,,0.0,0.0,
2025-08-15T00:39:59.874Z,8,GR86-015-31,-30.3,0.241,-1.092,39.89,2.0,,0.0,0.0,
2025-08-15T00:39:59.918Z,8,GR86-015-31,-29.6,0.206,-0.95,39.55,2.0,,0.0,0.0,
2025-08-15T00:39:59.960Z,8,GR86-015-31,-38.7,0.18,-1.024,37.55,2.0,6218.0,0.0,0.0,
2025-08-15T00:40:00.004Z,8,GR86-015-31,-49.8,0.186,-1.028,33.58,2.0,,0.0,0.0,105.36
2025-08-15T00:40:00.046Z,8,GR86-015-31,-52.8,0.229,-0.987,31.46,2.0,,0.0,0.0,
2025-08-15T00:40:00.089Z,8,GR86-015-31,-50.400000000000006,0.192,-1.036,28.08,2.0,,0.0,0.0,
2025-08-15T00:40:00.132Z,8,GR86-015-31,-52.8,0.176,-0.943,17.61,2.0,,0.0,0.0,
2025-08-15T00:40:00.175Z,8,GR86-015-31,-77.2,0.106,-0.972,6.19,2.0,6063.0,0.0,0.0,
2025-08-15T00:40:00.218Z,8,GR86-015-31,-89.9,-0.003,-1.15,5.8100000000000005,2.0,,0.0,0.0,105.38
2025-08-15T00:40:00.261Z,8,GR86-015-31,-92.3,-0.087,-1.152,5.78,2.0,,0.0,0.0,
2025-08-15T00:40:00.305Z,8,GR86-015-31,-92.2,-0.11,-1.259,5.71,2.0,,0.0,0.0,
2025-08-15T00:40:00.347Z,8,GR86-015-31,-86.30000000000001,-0.101,-1.312,5.55,2.0,,0.0,0.0,
2025-08-15T00:40:00.390Z,8,GR86-015-31,-76.3,-0.164,-1.343,15.93,2.0,6065.0,0.0,0.0,
2025-08-15T00:40:00.434Z,8,GR86-015-31,-65.9,-0.249,-1.292,17.96,2.0,,0.0,0.0,107.17
2025-08-15T00:40:00.476Z,8,GR86-015-31,-65.3,-0.162,-1.298,15.83,2.0,,0.0,0.0,
2025-08-15T00:40:00.519Z,8,GR86-015-31,-64.8,-0.071,-1.264,17.17,2.0,,0.0,0.0,
2025-08-15T00:40:00.562Z,8,GR86-015-31,-60.5,-0.082,-1.304,19.46,2.0,,0.0,0.0,
2025-08-15T00:40:00.605Z,8,GR86-015-31,-54.8,-0.062,-1.253,30.55,2.0,6027.0,0.0,0.0,
2025-08-15T00:40:00.648Z,8,GR86-015-31,-51.400000000000006,-0.018,-1.377,31.23,2.0,,0.0,0.0,106.85
2025-08-15T00:40:00.692Z,8,GR86-015-31,-51.3,0.08,-1.197,31.85,2.0,,0.0,0.0,
2025-08-15T00:40:00.735Z,8,GR86-015-31,-47.400000000000006,0.16,-1.329,32.25,2.0,,0.0,0.0,
2025-08-15T00:40:00.778Z,8,GR86-015-31,-33.9,0.197,-1.222,32.6,2.0,,0.0,0.0,
2025-08-15T00:40:00.821Z,8,GR86-015-31,-24.200000000000003,0.118,-1.071,33.33,2.0,6129.0,0.0,0.0,
2025-08-15T00:40:00.907Z,8,GR86-015-31,-52.2,0.167,-1.114,33.82,2.0,,0.0,0.0,105.45
2025-08-15T00:40:01.081Z,8,GR86-015-31,-72.9,0.276,-1.315,33.71,2.0,6122.0,0.0,0.0,104.97
2025-08-15T00:40:01.125Z,8,GR86-015-31,-83.60000000000001,0.277,-1.417,34.14,2.0,,0.0,0.0,
2025-08-15T00:40:01.210Z,8,GR86-015-31,-83.30000000000001,0.289,-1.376,35.35,2.0,,0.0,0.0,
2025-08-15T00:40:01.254Z,8,GR86-015-31,-82.4,0.36,-1.198,40.32,2.0,6194.0,0.0,0.0,
2025-08-15T00:40:01.296Z,8,GR86-015-31,-81.9,0.1,-1.077,78.54,2.0,,0.0,0.0,104.64
2025-08-15T00:40:01.339Z,8,GR86-015-31,-77.60000000000001,0.125,-1.081,99.95,2.0,,0.0,0.0,
2025-08-15T00:40:01.382Z,8,GR86-015-31,-63.400000000000006,-0.058,-1.19,100.09,2.0,,0.0,0.0,
2025-08-15T00:40:01.468Z,8,GR86-015-31,-28.3,0.369,-1.219,100.09,2.0,6354.0,0.0,0.0,
2025-08-15T00:40:01.511Z,8,GR86-015-31,-20.3,0.383,-1.212,100.12,2.0,,0.0,0.0,105.28
2025-08-15T00:40:01.555Z,8,GR86-015-31,-24.5,0.277,-1.14,100.12,2.0,,0.0,0.0,
2025-08-15T00:40:01.598Z,8,GR86-015-31,-25.0,0.293,-1.07,100.09,2.0,,0.0,0.0,
2025-08-15T00:40:01.685Z,8,GR86-015-31,-24.3,0.242,-1.135,100.11,2.0,6285.0,0.0,0.0,
2025-08-15T00:40:01.728Z,8,GR86-015-31,-52.900000000000006,0.24,-1.166,100.14,2.0,,0.0,0.0,106.61
2025-08-15T00:40:01.770Z,8,GR86-015-31,-68.5,0.299,-1.121,100.11,2.0,,0.0,0.0,
2025-08-15T00:40:01.814Z,8,GR86-015-31,-71.4,0.298,-1.105,100.12,2.0,,0.0,0.0,
2025-08-15T00:40:01.856Z,8,GR86-015-31,-61.6,0.256,-1.138,100.1,2.0,,0.0,0.0,
2025-08-15T00:40:01.899Z,8,GR86-015-31,-46.900000000000006,0.254,-1.109,100.08,2.0,6393.0,0.0,0.0,
2025-08-15T00:40:01.942Z,8,GR86-015-31,-36.1,0.276,-1.177,100.11,2.0,,0.0,0.0,107.63
2025-08-15T00:40:01.985Z,8,GR86-015-31,-31.700000000000003,0.298,-1.118,100.09,2.0,,0.0,0.0,
2025-08-15T00:40:02.071Z,8,GR86-015-31,-32.7,0.291,-1.116,100.11,2.0,,0.0,0.0,
2025-08-15T00:40:02.115Z,8,GR86-015-31,-44.6,0.28,-1.12,100.13,2.0,6431.0,0.0,0.0,
2025-08-15T00:40:02.157Z,8,GR86-015-31,-54.1,0.316,-1.038,100.11,2.0,,0.0,0.0,108.65
2025-08-15T00:40:02.200Z,8,GR86-015-31,-60.3,0.268,-1.062,100.11,2.0,,0.0,0.0,
2025-08-15T00:40:02.245Z,8,GR86-015-31,-62.2,0.225,-1.043,100.1,2.0,,0.0,0.0,
2025-08-15T00:40:02.287Z,8,GR86-015-31,-62.3,0.258,-1.014,100.11,2.0,,0.0,0.0,
2025-08-15T00:40:02.330Z,8,GR86-015-31,-61.8,0.23,-1.045,100.08,2.0,6438.0,0.0,0.0,
2025-08-15T00:40:02.374Z,8,GR86-015-31,-54.3,0.245,-0.987,100.1,2.0,,0.0,0.0,110.33
2025-08-15T00:40:02.417Z,8,GR86-015-31,-48.8,0.257,-0.974,100.08,2.0,,0.0,0.0,
2025-08-15T00:40:02.460Z,8,GR86-015-31,-45.7,0.284,-1.02,100.09,2.0,,0.0,0.0,
2025-08-15T00:40:02.504Z,8,GR86-015-31,-44.1,0.226,-0.996,100.08,2.0,,0.0,0.0,
2025-08-15T00:40:02.548Z,8,GR86-015-31,-43.0,0.277,-1.013,100.09,2.0,6546.0,0.0,0.0,
2025-08-15T00:40:02.591Z,8,GR86-015-31,-41.5,0.278,-1.021,100.08,2.0,,0.0,0.0,111.02
2025-08-15T00:40:02.635Z,8,GR86-015-31,-37.6,0.278,-1.015,100.05,2.0,,0.0,0.0,
2025-08-15T00:40:02.678Z,8,GR86-015-31,-34.300000000000004,0.231,-1.009,100.07,2.0,,0.0,0.0,
2025-08-15T00:40:02.721Z,8,GR86-015-31,-31.3,0.302,-0.992,100.09,2.0,,0.0,0.0,
2025-08-15T00:40:02.765Z,8,GR86-015-31,-29.700000000000003,0.293,-0.973,100.05,2.0,6659.0,0.0,0.0,
2025-08-15T00:40:02.807Z,8,GR86-015-31,-29.700000000000003,0.262,-0.942,100.04,2.0,,0.0,0.0,115.41
2025-08-15T00:40:02.850Z,8,GR86-015-31,-30.5,0.298,-1.018,100.07,2.0,,0.0,0.0,
2025-08-15T00:40:02.895Z,8,GR86-015-31,-37.9,0.306,-1.048,100.06,2.0,,0.0,0.0,
2025-08-15T00:40:02.938Z,8,GR86-015-31,-43.5,0.295,-0.993,100.08,2.0,,0.0,0.0,
2025-08-15T00:40:02.981Z,8,GR86-015-31,-46.1,0.26,-1.025,100.05,2.0,6768.0,0.0,0.0,
2025-08-15T00:40:03.025Z,8,GR86-015-31,-45.2,0.282,-1.059,100.09,2.0,,0.0,0.0,116.1
2025-08-15T00:40:03.068Z,8,GR86-015-31,-42.1,0.267,-0.974,100.05,2.0,,0.0,0.0,
2025-08-15T00:40:03.111Z,8,GR86-015-31,-38.400000000000006,0.254,-1.001,100.04,2.0,,0.0,0.0,
2025-08-15T00:40:03.154Z,8,GR86-015-31,-35.7,0.256,-0.918,100.08,2.0,,0.0,0.0,
2025-08-15T00:40:03.197Z,8,GR86-015-31,-35.6,0.289,-0.943,100.06,2.0,6892.0,0.0,0.0,
2025-08-15T00:40:03.241Z,8,GR86-015-31,-35.300000000000004,0.264,-0.927,100.05,2.0,,0.0,0.0,117.49
2025-08-15T00:40:03.284Z,8,GR86-015-31,-32.7,0.263,-0.931,100.08,2.0,,0.0,0.0,
2025-08-15T00:40:03.326Z,8,GR86-015-31,-30.3,0.33,-0.854,100.05,2.0,,0.0,0.0,
2025-08-15T00:40:03.369Z,8,GR86-015-31,-28.8,0.313,-0.8220000000000001,100.06,2.0,,0.0,0.0,
2025-08-15T00:40:03.414Z,8,GR86-015-31,-29.1,0.188,-0.53,100.06,2.0,6964.0,0.0,0.0,
2025-08-15T00:40:03.456Z,8,GR86-015-31,-30.1,0.161,-0.423,100.05,2.0,,0.0,0.0,119.4
2025-08-15T00:40:03.499Z,8,GR86-015-31,-31.700000000000003,0.229,-0.487,100.05,2.0,,0.0,0.0,
2025-08-15T00:40:03.542Z,8,GR86-015-31,-32.7,0.226,-0.519,100.04,2.0,,0.0,0.0,
2025-08-15T00:40:03.585Z,8,GR86-015-31,-32.5,0.231,-0.672,100.04,2.0,,0.0,0.0,
2025-08-15T00:40:03.628Z,8,GR86-015-31,-32.5,0.321,-0.705,100.05,2.0,7128.0,0.0,0.0,
2025-08-15T00:40:03.671Z,8,GR86-015-31,-32.5,0.271,-0.8320000000000001,100.04,2.0,,0.0,0.0,120.82
2025-08-15T00:40:03.715Z,8,GR86-015-31,-33.0,0.235,-0.855,100.07,2.0,,0.0,0.0,
2025-08-15T00:40:03.758Z,8,GR86-015-31,-32.5,0.266,-0.873,100.04,2.0,,0.0,0.0,
2025-08-15T00:40:03.801Z,8,GR86-015-31,-29.4,0.293,-0.872,100.02,2.0,,0.0,0.0,
2025-08-15T00:40:03.845Z,8,GR86-015-31,-26.8,0.21,-0.835,100.02,2.0,7167.0,0.0,0.0,
2025-08-15T00:40:03.887Z,8,GR86-015-31,-25.9,-0.098,-0.769,100.02,3.0,,0.0,0.0,122.75
2025-08-15T00:40:03.930Z,8,GR86-015-31,-25.9,0.318,-0.639,100.04,3.0,,0.0,0.0,
2025-08-15T00:40:03.974Z,8,GR86-015-31,-25.1,0.451,-0.8320000000000001,100.02,3.0,,0.0,0.0,
2025-08-15T00:40:04.016Z,8,GR86-015-31,-24.700000000000003,0.338,-0.65,100.02,3.0,,0.0,0.0,
2025-08-15T00:40:04.061Z,8,GR86-015-31,-22.5,0.205,-0.833,100.02,3.0,6224.0,0.0,0.0,
2025-08-15T00:40:04.104Z,8,GR86-015-31,-18.7,0.154,-0.909,100.02,3.0,,0.0,0.0,124.08
2025-08-15T00:40:04.146Z,8,GR86-015-31,-18.0,0.306,-0.5760000000000001,100.02,3.0,,0.0,0.0,
2025-08-15T00:40:04.190Z,8,GR86-015-31,-17.400000000000002,0.198,-0.764,100.02,3.0,,0.0,0.0,
2025-08-15T00:40:04.234Z,8,GR86-015-31,-14.0,0.084,-0.322,100.01,3.0,,0.0,0.0,
2025-08-15T00:40:04.276Z,8,GR86-015-31,-9.9,0.285,-0.255,100.01,3.0,5971.0,0.0,0.0,
2025-08-15T00:40:04.319Z,8,GR86-015-31,-7.5,0.278,-0.366,100.01,3.0,,0.0,0.0,125.83
2025-08-15T00:40:04.362Z,8,GR86-015-31,-6.800000000000001,0.273,-0.116,100.01,3.0,,0.0,0.0,
2025-08-15T00:40:04.405Z,8,GR86-015-31,-6.7,0.155,-0.057,100.02,3.0,,0.0,0.0,
2025-08-15T00:40:04.448Z,8,GR86-015-31,-5.9,0.153,-0.126,100.02,3.0,,0.0,0.0,
2025-08-15T00:40:04.492Z,8,GR86-015-31,-5.2,0.276,-0.108,100.01,3.0,5962.0,0.0,0.0,
2025-08-15T00:40:04.535Z,8,GR86-015-31,-5.6000000000000005,0.223,-0.18,100.02,3.0,,0.0,0.0,127.34
2025-08-15T00:40:04.578Z,8,GR86-015-31,-6.9,0.237,-0.187,100.02,3.0,,0.0,0.0,
2025-08-15T00:40:04.621Z,8,GR86-015-31,-7.5,0.175,0.007,100.03,3.0,,0.0,0.0,
2025-08-15T00:40:04.665Z,8,GR86-015-31,-7.1000000000000005,0.229,-0.06,100.01,3.0,,0.0,0.0,
2025-08-15T00:40:04.707Z,8,GR86-015-31,-5.300000000000001,0.294,-0.095,100.01,3.0,6025.0,0.0,0.0,
2025-08-15T00:40:04.750Z,8,GR86-015-31,-3.3000000000000003,0.281,-0.011,100.0,3.0,,0.0,0.0,129.21
2025-08-15T00:40:04.795Z,8,GR86-015-31,-2.9000000000000004,0.215,-0.092,100.03,3.0,,0.0,0.0,
2025-08-15T00:40:04.838Z,8,GR86-015-31,-2.7,0.259,-0.049,100.02,3.0,,0.0,0.0,
2025-08-15T00:40:04.881Z,8,GR86-015-31,-2.4000000000000004,0.248,-0.025,100.01,3.0,,0.0,0.0,
2025-08-15T00:40:04.925Z,8,GR86-015-31,-1.7000000000000002,0.28,-0.065,100.02,3.0,6133.0,0.0,0.0,
2025-08-15T00:40:04.968Z,8,GR86-015-31,-1.2000000000000002,0.238,-0.017,100.02,3.0,,0.0,0.0,130.5
2025-08-15T00:40:05.010Z,8,GR86-015-31,-0.8,0.248,0.004,100.02,3.0,,0.0,0.0,
2025-08-15T00:40:05.055Z,8,GR86-015-31,0.2,0.245,0.03,100.03,3.0,,0.0,0.0,
2025-08-15T00:40:05.098Z,8,GR86-015-31,0.7000000000000001,0.256,0.05,100.02,3.0,,0.0,0.0,
2025-08-15T00:40:05.141Z,8,GR86-015-31,1.0,0.243,0.048,100.02,3.0,6183.0,0.0,0.0,
2025-08-15T00:40:05.185Z,8,GR86-015-31,1.2000000000000002,0.245,0.045,100.02,3.0,,0.0,0.0,132.36
2025-08-15T00:40:05.228Z,8,GR86-015-31,1.2000000000000002,0.249,0.071,100.02,3.0,,0.0,0.0,
2025-08-15T00:40:05.271Z,8,GR86-015-31,1.3,0.233,0.071,100.02,3.0,,0.0,0.0,
2025-08-15T00:40:05.315Z,8,GR86-015-31,1.4,0.235,0.093,100.02,3.0,,0.0,0.0,
2025-08-15T00:40:05.358Z,8,GR86-015-31,1.4,0.217,0.102,100.02,3.0,6274.0,0.0,0.0,
2025-08-15T00:40:05.401Z,8,GR86-015-31,1.4,0.237,0.092,100.01,3.0,,0.0,0.0,135.32
2025-08-15T00:40:05.445Z,8,GR86-015-31,1.4,0.24,0.096,100.01,3.0,,0.0,0.0,
2025-08-15T00:40:05.488Z,8,GR86-015-31,1.4,0.25,0.082,100.02,3.0,,0.0,0.0,
2025-08-15T00:40:05.530Z,8,GR86-015-31,1.4,0.235,0.061,100.02,3.0,,0.0,0.0,
2025-08-15T00:40:05.574Z,8,GR86-015-31,1.4,0.239,0.043,100.0,3.0,6341.0,0.0,0.0,
2025-08-15T00:40:05.618Z,8,GR86-015-31,1.3,0.22,0.036,100.0,3.0,,0.0,0.0,136.81
2025-08-15T00:40:05.661Z,8,GR86-015-31,1.3,0.245,0.04,100.01,3.0,,0.0,0.0,
2025-08-15T00:40:05.705Z,8,GR86-015-31,1.3,0.246,0.028,100.02,3.0,,0.0,0.0,
2025-08-15T00:40:05.747Z,8,GR86-015-31,1.4,0.245,0.006,100.01,3.0,,0.0,0.0,
2025-08-15T00:40:05.790Z,8,GR86-015-31,1.4,0.21,0.013,100.02,3.0,6403.0,0.0,0.0,
2025-08-15T00:40:05.834Z,8,GR86-015-31,1.4,0.233,0.016,100.0,3.0,,0.0,0.0,138.26
2025-08-15T00:40:05.876Z,8,GR86-015-31,1.4,0.236,0.026,99.99,3.0,,0.0,0.0,
2025-08-15T00:40:05.919Z,8,GR86-015-31,1.4,0.239,0.043,100.02,3.0,,0.0,0.0,
2025-08-15T00:40:05.962Z,8,GR86-015-31,1.4,0.251,0.058,100.01,3.0,,0.0,0.0,
2025-08-15T00:40:06.005Z,8,GR86-015-31,1.5,0.231,0.042,100.01,3.0,6541.0,0.0,0.0,
2025-08-15T00:40:06.048Z,8,GR86-015-31,1.5,0.211,0.054,100.01,3.0,,0.0,0.0,139.68
2025-08-15T00:40:06.091Z,8,GR86-015-31,1.5,0.228,0.054,100.0,3.0,,0.0,0.0,
2025-08-15T00:40:06.135Z,8,GR86-015-31,1.5,0.217,0.065,100.02,3.0,,0.0,0.0,
2025-08-15T00:40:06.177Z,8,GR86-015-31,1.5,0.247,0.061,100.01,3.0,,0.0,0.0,
2025-08-15T00:40:06.220Z,8,GR86-015-31,1.5,0.249,0.042,100.01,3.0,6611.0,0.0,0.0,
2025-08-15T00:40:06.264Z,8,GR86-015-31,1.4,0.25,0.035,100.02,3.0,,0.0,0.0,141.17000000000002
2025-08-15T00:40:06.306Z,8,GR86-015-31,1.4,0.21,0.037,100.0,3.0,,0.0,0.0,
2025-08-15T00:40:06.349Z,8,GR86-015-31,1.4,0.215,0.027,100.01,3.0,,0.0,0.0,
2025-08-15T00:40:06.395Z,8,GR86-015-31,1.3,0.222,-0.002,100.02,3.0,,0.0,0.0,
2025-08-15T00:40:06.438Z,8,GR86-015-31,1.2000000000000002,0.213,0.005,99.99,3.0,6674.0,0.0,0.0,
2025-08-15T00:40:06.481Z,8,GR86-015-31,1.2000000000000002,0.236,-0.003,99.99,3.0,,0.0,0.0,142.6
2025-08-15T00:40:06.525Z,8,GR86-015-31,1.1,0.255,-0.01,100.02,3.0,,0.0,0.0,
2025-08-15T00:40:06.568Z,8,GR86-015-31,1.1,0.248,-0.009,99.99,3.0,,0.0,0.0,
2025-08-15T00:40:06.610Z,8,GR86-015-31,1.1,0.203,-0.014,99.99,3.0,,0.0,0.0,
2025-08-15T00:40:06.654Z,8,GR86-015-31,1.0,0.232,-0.037,100.02,3.0,6745.0,0.0,0.0,
2025-08-15T00:40:06.697Z,8,GR86-015-31,1.0,0.214,-0.022,100.0,3.0,,0.0,0.0,144.09
2025-08-15T00:40:06.740Z,8,GR86-015-31,1.0,0.218,-0.012,99.97,3.0,,0.0,0.0,
2025-08-15T00:40:06.784Z,8,GR86-015-31,0.9,0.244,-0.007,100.01,3.0,,0.0,0.0,
2025-08-15T00:40:06.826Z,8,GR86-015-31,0.9,0.262,-0.016,100.0,3.0,,0.0,0.0,
2025-08-15T00:40:06.869Z,8,GR86-015-31,0.9,0.233,-0.011,100.01,3.0,6805.0,0.0,0.0,
2025-08-15T00:40:06.912Z,8,GR86-015-31,0.9,0.21,0.0,99.99,3.0,,0.0,0.0,145.47
2025-08-15T00:40:06.955Z,8,GR86-015-31,0.9,0.247,-0.022,99.99,3.0,,0.0,0.0,
2025-08-15T00:40:06.998Z,8,GR86-015-31,0.9,0.221,-0.024,100.0,3.0,,0.0,0.0,
2025-08-15T00:40:07.041Z,8,GR86-015-31,0.9,0.214,-0.01,99.98,3.0,,0.0,0.0,
2025-08-15T00:40:07.085Z,8,GR86-015-31,0.9,0.23,0.0,100.02,3.0,6874.0,0.0,0.0,
2025-08-15T00:40:07.128Z,8,GR86-015-31,0.9,0.252,0.005,100.02,3.0,,0.0,0.0,146.86
2025-08-15T00:40:07.171Z,8,GR86-015-31,0.9,0.254,-0.016,100.0,3.0,,0.0,0.0,
2025-08-15T00:40:07.214Z,8,GR86-015-31,1.0,0.239,0.001,99.99,3.0,,0.0,0.0,
2025-08-15T00:40:07.256Z,8,GR86-015-31,1.0,0.249,-0.022,99.98,3.0,,0.0,0.0,
2025-08-15T00:40:07.299Z,8,GR86-015-31,1.0,0.218,-0.008,99.98,3.0,6933.0,0.0,0.0,
2025-08-15T00:40:07.342Z,8,GR86-015-31,1.0,0.208,0.004,100.01,3.0,,0.0,0.0,148.19
2025-08-15T00:40:07.385Z,8,GR86-015-31,1.0,0.219,0.017,99.99,3.0,,0.0,0.0,
2025-08-15T00:40:07.428Z,8,GR86-015-31,1.0,0.219,0.035,99.99,3.0,,0.0,0.0,
2025-08-15T00:40:07.471Z,8,GR86-015-31,1.1,0.243,0.035,100.0,3.0,,0.0,0.0,
2025-08-15T00:40:07.515Z,8,GR86-015-31,1.5,0.214,0.072,100.01,3.0,7007.0,0.0,0.0,
2025-08-15T00:40:07.558Z,8,GR86-015-31,2.0,0.22,0.078,100.02,3.0,,0.0,0.0,149.55
2025-08-15T00:40:07.602Z,8,GR86-015-31,2.2,0.24,0.082,99.99,3.0,,0.0,0.0,
2025-08-15T00:40:07.645Z,8,GR86-015-31,2.2,0.209,0.077,99.99,3.0,,0.0,0.0,
2025-08-15T00:40:07.687Z,8,GR86-015-31,2.1,0.218,0.087,100.0,3.0,,0.0,0.0,
2025-08-15T00:40:07.730Z,8,GR86-015-31,2.0,0.188,0.107,100.0,3.0,7061.0,0.0,0.0,
2025-08-15T00:40:07.774Z,8,GR86-015-31,1.9,0.204,0.093,100.01,3.0,,0.0,0.0,150.89
2025-08-15T00:40:07.816Z,8,GR86-015-31,1.9,0.187,0.095,99.99,3.0,,0.0,0.0,
2025-08-15T00:40:07.859Z,8,GR86-015-31,1.9,0.18,0.091,100.0,3.0,,0.0,0.0,
2025-08-15T00:40:07.945Z,8,GR86-015-31,1.7000000000000002,0.221,0.052,100.0,3.0,7119.0,0.0,0.0,
2025-08-15T00:40:07.989Z,8,GR86-015-31,0.2,0.238,-0.002,99.99,3.0,,0.0,0.0,152.15
2025-08-15T00:40:08.032Z,8,GR86-015-31,-1.1,0.225,-0.015,100.0,3.0,,0.0,0.0,
2025-08-15T00:40:08.075Z,8,GR86-015-31,-1.9,0.224,-0.039,99.99,3.0,,0.0,0.0,
2025-08-15T00:40:08.118Z,8,GR86-015-31,-1.9,0.224,-0.067,100.01,3.0,,0.0,0.0,
2025-08-15T00:40:08.205Z,8,GR86-015-31,-2.4000000000000004,0.207,-0.106,99.99,3.0,7167.0,0.0,0.0,154.6
2025-08-15T00:40:08.248Z,8,GR86-015-31,-3.2,0.192,-0.128,99.99,3.0,,0.0,0.0,
2025-08-15T00:40:08.292Z,8,GR86-015-31,-3.6,0.193,-0.148,100.02,3.0,,0.0,0.0,
2025-08-15T00:40:08.335Z,8,GR86-015-31,-3.6,0.196,-0.18,100.0,3.0,,0.0,0.0,
2025-08-15T00:40:08.378Z,8,GR86-015-31,-3.7,0.2,-0.158,99.99,3.0,7229.0,0.0,0.0,
2025-08-15T00:40:08.421Z,8,GR86-015-31,-4.0,0.181,-0.16,100.01,3.0,,0.0,0.0,155.83
2025-08-15T00:40:08.465Z,8,GR86-015-31,-4.6000000000000005,0.026,-0.176,99.98,4.0,,0.0,0.0,
2025-08-15T00:40:08.508Z,8,GR86-015-31,-4.9,-0.015,-0.154,100.0,4.0,,0.0,0.0,
2025-08-15T00:40:08.550Z,8,GR86-015-31,-4.7,0.591,-0.209,99.99,4.0,,0.0,0.0,
2025-08-15T00:40:08.595Z,8,GR86-015-31,-4.7,0.367,-0.206,99.98,4.0,6387.0,0.0,0.0,
2025-08-15T00:40:08.638Z,8,GR86-015-31,-4.6000000000000005,0.117,-0.149,99.99,4.0,,0.0,0.0,156.84
2025-08-15T00:40:08.681Z,8,GR86-015-31,-4.4,0.083,-0.287,100.01,4.0,,0.0,0.0,
2025-08-15T00:40:08.725Z,8,GR86-015-31,-4.3,0.208,-0.208,100.0,4.0,,0.0,0.0,
2025-08-15T00:40:08.768Z,8,GR86-015-31,-4.3,0.266,-0.163,99.99,4.0,,0.0,0.0,
2025-08-15T00:40:08.811Z,8,GR86-015-31,-4.3,0.156,-0.234,100.0,4.0,6226.0,0.0,0.0,
2025-08-15T00:40:08.854Z,8,GR86-015-31,-4.3,0.152,-0.135,99.99,4.0,,0.0,0.0,158.17000000000002
2025-08-15T00:40:08.897Z,8,GR86-015-31,-4.3,0.196,-0.175,100.02,4.0,,0.0,0.0,
2025-08-15T00:40:08.940Z,8,GR86-015-31,-5.0,0.2,-0.15,100.0,4.0,,0.0,0.0,
2025-08-15T00:40:08.984Z,8,GR86-015-31,-5.0,0.172,-0.159,99.99,4.0,,0.0,0.0,
2025-08-15T00:40:09.026Z,8,GR86-015-31,-5.0,0.175,-0.176,100.02,4.0,6249.0,0.0,0.0,
2025-08-15T00:40:09.069Z,8,GR86-015-31,-5.4,0.187,-0.189,100.01,4.0,,0.0,0.0,159.18
2025-08-15T00:40:09.112Z,8,GR86-015-31,-6.7,0.198,-0.193,99.98,4.0,,0.0,0.0,
2025-08-15T00:40:09.155Z,8,GR86-015-31,-7.4,0.175,-0.249,100.02,4.0,,0.0,0.0,
2025-08-15T00:40:09.198Z,8,GR86-015-31,-6.9,0.176,-0.261,99.97,4.0,,0.0,0.0,
2025-08-15T00:40:09.241Z,8,GR86-015-31,-5.800000000000001,0.189,-0.266,100.02,4.0,6290.0,0.0,0.0,
2025-08-15T00:40:09.285Z,8,GR86-015-31,-5.4,0.197,-0.247,100.0,4.0,,0.0,0.0,160.37
2025-08-15T00:40:09.328Z,8,GR86-015-31,-5.4,0.199,-0.203,100.02,4.0,,0.0,0.0,
2025-08-15T00:40:09.370Z,8,GR86-015-31,-5.4,0.168,-0.202,99.99,4.0,,0.0,0.0,
2025-08-15T00:40:09.414Z,8,GR86-015-31,-5.300000000000001,0.18,-0.184,99.99,4.0,,0.0,0.0,
2025-08-15T00:40:09.456Z,8,GR86-015-31,-4.7,0.189,-0.152,99.99,4.0,6343.0,0.0,0.0,
2025-08-15T00:40:09.499Z,8,GR86-015-31,-3.7,0.183,-0.144,100.02,4.0,,0.0,0.0,161.39
2025-08-15T00:40:09.542Z,8,GR86-015-31,-3.7,0.174,-0.139,99.99,4.0,,0.0,0.0,
2025-08-15T00:40:09.585Z,8,GR86-015-31,-3.7,0.177,-0.123,99.99,4.0,,0.0,0.0,
2025-08-15T00:40:09.628Z,8,GR86-015-31,-3.8,0.178,-0.126,100.0,4.0,,0.0,0.0,
2025-08-15T00:40:09.671Z,8,GR86-015-31,-4.1000000000000005,0.18,-0.121,99.99,4.0,6380.0,0.0,0.0,
2025-08-15T00:40:09.715Z,8,GR86-015-31,-4.2,0.175,-0.116,100.02,4.0,,0.0,0.0,162.39
2025-08-15T00:40:09.758Z,8,GR86-015-31,-4.3,0.169,-0.138,100.0,4.0,,0.0,0.0,
2025-08-15T00:40:09.801Z,8,GR86-015-31,-4.3,0.167,-0.147,100.02,4.0,,0.0,0.0,
2025-08-15T00:40:09.845Z,8,GR86-015-31,-4.3,0.185,-0.157,100.0,4.0,,0.0,0.0,
2025-08-15T00:40:09.887Z,8,GR86-015-31,-4.3,0.159,-0.161,99.99,4.0,6433.0,0.0,0.0,
2025-08-15T00:40:09.930Z,8,GR86-015-31,-4.2,0.179,-0.174,100.0,4.0,,0.0,0.0,163.35
2025-08-15T00:40:09.974Z,8,GR86-015-31,-4.1000000000000005,0.166,-0.157,99.99,4.0,,0.0,0.0,
2025-08-15T00:40:10.016Z,8,GR86-015-31,-4.1000000000000005,0.155,-0.146,100.01,4.0,,0.0,0.0,
2025-08-15T00:40:10.059Z,8,GR86-015-31,-4.0,0.171,-0.134,100.02,4.0,,0.0,0.0,
2025-08-15T00:40:10.102Z,8,GR86-015-31,-4.0,0.177,-0.156,100.0,4.0,6464.0,0.0,0.0,
2025-08-15T00:40:10.188Z,8,GR86-015-31,-3.8,0.175,-0.101,99.99,4.0,,0.0,0.0,164.41
2025-08-15T00:40:10.231Z,8,GR86-015-31,-3.8,0.19,-0.076,100.01,4.0,,0.0,0.0,
2025-08-15T00:40:10.275Z,8,GR86-015-31,-3.8,0.167,-0.073,100.02,4.0,,0.0,0.0,
2025-08-15T00:40:10.317Z,8,GR86-015-31,-3.8,0.162,-0.105,99.99,4.0,6505.0,0.0,0.0,
2025-08-15T00:40:10.360Z,8,GR86-015-31,-3.9,0.174,-0.12,99.99,4.0,,0.0,0.0,165.48
2025-08-15T00:40:10.404Z,8,GR86-015-31,-4.7,0.177,-0.14,99.99,4.0,,0.0,0.0,
2025-08-15T00:40:10.446Z,8,GR86-015-31,-5.7,0.189,-0.165,100.01,4.0,,0.0,0.0,
2025-08-15T00:40:10.489Z,8,GR86-015-31,-5.800000000000001,0.181,-0.165,100.02,4.0,,0.0,0.0,
2025-08-15T00:40:10.532Z,8,GR86-015-31,-5.5,0.183,-0.17,99.99,4.0,6549.0,0.0,0.0,
2025-08-15T00:40:10.575Z,8,GR86-015-31,-4.4,0.161,-0.144,99.99,4.0,,0.0,0.0,166.56
2025-08-15T00:40:10.618Z,8,GR86-015-31,-4.3,0.181,-0.15,99.99,4.0,,0.0,0.0,
2025-08-15T00:40:10.661Z,8,GR86-015-31,-4.3,0.176,-0.18,100.0,4.0,,0.0,0.0,
2025-08-15T00:40:10.705Z,8,GR86-015-31,-4.4,0.19,-0.194,100.01,4.0,,0.0,0.0,
2025-08-15T00:40:10.747Z,8,GR86-015-31,-4.4,0.18,-0.176,99.99,4.0,6600.0,0.0,0.0,
2025-08-15T00:40:10.790Z,8,GR86-015-31,-4.6000000000000005,0.183,-0.139,100.0,4.0,,0.0,0.0,167.63
2025-08-15T00:40:10.834Z,8,GR86-015-31,-4.6000000000000005,0.156,-0.13,100.01,4.0,,0.0,0.0,
2025-08-15T00:40:10.876Z,8,GR86-015-31,-4.3,0.172,-0.131,100.01,4.0,,0.0,0.0,
2025-08-15T00:40:10.919Z,8,GR86-015-31,-3.8,0.16,-0.137,99.99,4.0,,0.0,0.0,
2025-08-15T00:40:10.962Z,8,GR86-015-31,-3.8,0.192,-0.128,99.99,4.0,6634.0,0.0,0.0,
2025-08-15T00:40:11.005Z,8,GR86-015-31,-3.8,0.185,-0.122,99.99,4.0,,0.0,0.0,169.79
2025-08-15T00:40:11.048Z,8,GR86-015-31,-3.7,0.18,-0.137,100.03,4.0,,0.0,0.0,
2025-08-15T00:40:11.092Z,8,GR86-015-31,-3.4000000000000004,0.169,-0.102,99.99,4.0,,0.0,0.0,
2025-08-15T00:40:11.135Z,8,GR86-015-31,-3.1,0.159,-0.078,99.99,4.0,,0.0,0.0,
2025-08-15T00:40:11.178Z,8,GR86-015-31,-2.7,0.16,-0.059,100.02,4.0,6682.0,0.0,0.0,
2025-08-15T00:40:11.221Z,8,GR86-015-31,-2.4000000000000004,0.171,-0.048,100.01,4.0,,0.0,0.0,170.92000000000002
2025-08-15T00:40:11.265Z,8,GR86-015-31,-2.3000000000000003,0.166,-0.028,99.99,4.0,,0.0,0.0,
2025-08-15T00:40:11.307Z,8,GR86-015-31,-2.3000000000000003,0.167,-0.019,100.0,4.0,,0.0,0.0,
2025-08-15T00:40:11.350Z,8,GR86-015-31,-2.3000000000000003,0.178,-0.033,100.01,4.0,,0.0,0.0,
2025-08-15T00:40:11.438Z,8,GR86-015-31,-2.1,0.128,0.017,100.0,4.0,6763.0,0.0,0.0,171.94
2025-08-15T00:40:11.481Z,8,GR86-015-31,-2.1,0.131,0.02,100.0,4.0,,0.0,0.0,
2025-08-15T00:40:11.525Z,8,GR86-015-31,-2.6,0.136,-0.012,100.0,4.0,,0.0,0.0,
2025-08-15T00:40:11.568Z,8,GR86-015-31,-5.0,0.164,-0.057,99.99,4.0,,0.0,0.0,
2025-08-15T00:40:11.610Z,8,GR86-015-31,-7.9,0.161,-0.084,100.01,4.0,6790.0,0.0,0.0,
2025-08-15T00:40:11.655Z,8,GR86-015-31,-10.3,0.136,-0.178,99.99,4.0,,0.0,0.0,172.97
2025-08-15T00:40:11.698Z,8,GR86-015-31,-10.2,0.116,-0.252,99.99,4.0,,0.0,0.0,
2025-08-15T00:40:11.741Z,8,GR86-015-31,-9.1,0.12,-0.295,100.0,4.0,,0.0,0.0,
2025-08-15T00:40:11.785Z,8,GR86-015-31,-8.3,0.134,-0.328,100.0,4.0,,0.0,0.0,
2025-08-15T00:40:11.828Z,8,GR86-015-31,-8.4,0.128,-0.342,100.01,4.0,6841.0,0.0,0.0,
2025-08-15T00:40:11.871Z,8,GR86-015-31,-8.6,0.139,-0.369,100.0,4.0,,0.0,0.0,174.03
2025-08-15T00:40:11.915Z,8,GR86-015-31,-8.3,0.154,-0.405,100.0,4.0,,0.0,0.0,
2025-08-15T00:40:11.958Z,8,GR86-015-31,-7.7,0.182,-0.375,100.02,4.0,,0.0,0.0,
2025-08-15T00:40:12.001Z,8,GR86-015-31,-7.6,0.158,-0.332,100.01,4.0,,0.0,0.0,
2025-08-15T00:40:12.045Z,8,GR86-015-31,-8.1,0.148,-0.299,99.99,4.0,6877.0,0.0,0.0,
2025-08-15T00:40:12.088Z,8,GR86-015-31,-9.1,0.139,-0.314,99.98,4.0,,0.0,0.0,174.92000000000002
2025-08-15T00:40:12.130Z,8,GR86-015-31,-9.1,0.136,-0.303,100.0,4.0,,0.0,0.0,
2025-08-15T00:40:12.174Z,8,GR86-015-31,-8.6,0.173,-0.295,100.0,4.0,,0.0,0.0,
2025-08-15T00:40:12.218Z,8,GR86-015-31,-9.1,0.142,-0.304,100.0,4.0,,0.0,0.0,
2025-08-15T00:40:12.260Z,8,GR86-015-31,-11.4,0.175,-0.346,100.0,4.0,6906.0,0.0,0.0,
2025-08-15T00:40:12.304Z,8,GR86-015-31,-13.3,0.159,-0.387,99.99,4.0,,0.0,0.0,175.75
2025-08-15T00:40:12.346Z,8,GR86-015-31,-13.3,0.151,-0.43,99.98,4.0,,0.0,0.0,
2025-08-15T00:40:12.389Z,8,GR86-015-31,-11.9,0.178,-0.43,99.98,4.0,,0.0,0.0,
2025-08-15T00:40:12.434Z,8,GR86-015-31,-9.7,0.142,-0.43,100.01,4.0,,0.0,0.0,
2025-08-15T00:40:12.519Z,8,GR86-015-31,-9.4,0.113,-0.408,100.0,4.0,6942.0,0.0,0.0,176.64
2025-08-15T00:40:12.564Z,8,GR86-015-31,-7.1000000000000005,0.12,-0.413,100.01,4.0,,0.0,0.0,
2025-08-15T00:40:12.606Z,8,GR86-015-31,-6.2,0.124,-0.345,99.99,4.0,,0.0,0.0,
2025-08-15T00:40:12.649Z,8,GR86-015-31,-6.1000000000000005,0.129,-0.322,100.0,4.0,,0.0,0.0,
2025-08-15T00:40:12.692Z,8,GR86-015-31,-6.1000000000000005,0.119,-0.282,100.02,4.0,6980.0,0.0,0.0,
2025-08-15T00:40:12.735Z,8,GR86-015-31,-5.5,0.152,-0.217,99.99,4.0,,0.0,0.0,177.64
2025-08-15T00:40:12.778Z,8,GR86-015-31,-5.2,0.138,-0.173,100.0,4.0,,0.0,0.0,
2025-08-15T00:40:12.821Z,8,GR86-015-31,-5.2,0.148,-0.134,99.99,4.0,,0.0,0.0,
2025-08-15T00:40:12.865Z,8,GR86-015-31,-4.9,0.137,-0.136,100.0,4.0,,0.0,0.0,
2025-08-15T00:40:12.907Z,8,GR86-015-31,-3.8,0.154,-0.138,100.0,4.0,7007.0,0.0,0.0,
2025-08-15T00:40:12.950Z,8,GR86-015-31,-3.1,0.133,-0.096,99.97,4.0,,0.0,0.0,178.66
2025-08-15T00:40:12.995Z,8,GR86-015-31,-3.1,0.138,-0.099,100.0,4.0,,0.0,0.0,
2025-08-15T00:40:13.038Z,8,GR86-015-31,-3.3000000000000003,0.145,-0.105,99.99,4.0,,0.0,0.0,
2025-08-15T00:40:13.081Z,8,GR86-015-31,-3.2,0.13,-0.128,99.99,4.0,,0.0,0.0,
2025-08-15T00:40:13.168Z,8,GR86-015-31,-3.0,0.137,-0.093,99.99,4.0,7049.0,0.0,0.0,179.52
2025-08-15T00:40:13.210Z,8,GR86-015-31,-3.0,0.141,-0.09,100.01,4.0,,0.0,0.0,
2025-08-15T00:40:13.254Z,8,GR86-015-31,-2.8000000000000003,0.121,-0.098,100.0,4.0,,0.0,0.0,
2025-08-15T00:40:13.296Z,8,GR86-015-31,-2.7,0.118,-0.1,99.98,4.0,,0.0,0.0,
2025-08-15T00:40:13.339Z,8,GR86-015-31,-2.7,0.133,-0.069,99.99,4.0,7072.0,0.0,0.0,
2025-08-15T00:40:13.382Z,8,GR86-015-31,-2.6,0.129,-0.071,100.0,4.0,,0.0,0.0,180.42
2025-08-15T00:40:13.425Z,8,GR86-015-31,-2.6,0.138,-0.085,99.99,4.0,,0.0,0.0,
2025-08-15T00:40:13.469Z,8,GR86-015-31,-2.6,0.122,-0.072,99.97,4.0,,0.0,0.0,
2025-08-15T00:40:13.512Z,8,GR86-015-31,-2.5,0.112,-0.063,100.01,4.0,,0.0,0.0,
2025-08-15T00:40:13.555Z,8,GR86-015-31,-2.4000000000000004,0.132,-0.057,99.99,4.0,7108.0,0.0,0.0,
2025-08-15T00:40:13.598Z,8,GR86-015-31,-2.4000000000000004,0.141,-0.062,99.99,4.0,,0.0,0.0,182.08
2025-08-15T00:40:13.641Z,8,GR86-015-31,-2.4000000000000004,0.119,-0.06,99.99,4.0,,0.0,0.0,
2025-08-15T00:40:13.685Z,8,GR86-015-31,-2.3000000000000003,0.13,-0.045,99.99,4.0,,0.0,0.0,
2025-08-15T00:40:13.728Z,8,GR86-015-31,-2.0,0.127,-0.027,99.98,4.0,,0.0,0.0,
2025-08-15T00:40:13.770Z,8,GR86-015-31,-1.4,0.124,-0.022,100.01,4.0,7148.0,0.0,0.0,
2025-08-15T00:40:13.814Z,8,GR86-015-31,-0.6000000000000001,0.132,0.02,99.98,4.0,,0.0,0.0,182.94
2025-08-15T00:40:13.856Z,8,GR86-015-31,-0.6000000000000001,0.129,0.017,100.01,4.0,,0.0,0.0,
2025-08-15T00:40:13.899Z,8,GR86-015-31,-0.6000000000000001,0.12,0.018,99.97,4.0,,0.0,0.0,
2025-08-15T00:40:13.942Z,8,GR86-015-31,-0.6000000000000001,0.124,0.004,99.99,4.0,,0.0,0.0,
2025-08-15T00:40:14.028Z,8,GR86-015-31,-1.0,0.126,0.029,99.97,4.0,7176.0,0.0,0.0,183.77
2025-08-15T00:40:14.071Z,8,GR86-015-31,-1.2000000000000002,0.141,0.012,100.0,4.0,,0.0,0.0,
2025-08-15T00:40:14.115Z,8,GR86-015-31,-2.0,-0.021,-0.027,99.97,5.0,,0.0,0.0,
2025-08-15T00:40:14.157Z,8,GR86-015-31,-3.4000000000000004,-0.099,-0.002,99.99,5.0,,0.0,0.0,
2025-08-15T00:40:14.200Z,8,GR86-015-31,-3.7,0.468,-0.058,99.99,5.0,6791.0,0.0,0.0,
2025-08-15T00:40:14.245Z,8,GR86-015-31,-3.9,0.144,-0.153,99.99,5.0,,0.0,0.0,184.6
2025-08-15T00:40:14.287Z,8,GR86-015-31,-4.7,0.038,-0.089,99.99,5.0,,0.0,0.0,
2025-08-15T00:40:14.330Z,8,GR86-015-31,-4.7,0.042,-0.176,100.03,5.0,,0.0,0.0,
2025-08-15T00:40:14.374Z,8,GR86-015-31,-4.4,0.203,-0.189,99.99,5.0,,0.0,0.0,
2025-08-15T00:40:14.418Z,8,GR86-015-31,-4.3,0.108,-0.176,99.99,5.0,6344.0,0.0,0.0,
2025-08-15T00:40:14.460Z,8,GR86-015-31,-4.2,0.088,-0.235,99.99,5.0,,0.0,0.0,185.22
2025-08-15T00:40:14.504Z,8,GR86-015-31,-4.0,0.131,-0.163,100.0,5.0,,0.0,0.0,
2025-08-15T00:40:14.548Z,8,GR86-015-31,-4.0,0.132,-0.183,99.99,5.0,,0.0,0.0,
2025-08-15T00:40:14.592Z,8,GR86-015-31,-4.0,0.112,-0.166,99.99,5.0,,0.0,0.0,
2025-08-15T00:40:14.635Z,8,GR86-015-31,-4.0,0.097,-0.163,99.98,5.0,6301.0,0.0,0.0,
2025-08-15T00:40:14.721Z,8,GR86-015-31,-4.6000000000000005,0.115,-0.152,99.99,5.0,,0.0,0.0,185.99
2025-08-15T00:40:14.765Z,8,GR86-015-31,-5.6000000000000005,0.094,-0.124,100.0,5.0,,0.0,0.0,
2025-08-15T00:40:14.807Z,8,GR86-015-31,-5.9,0.113,-0.161,99.99,5.0,,0.0,0.0,
2025-08-15T00:40:14.850Z,8,GR86-015-31,-5.6000000000000005,0.114,-0.191,99.99,5.0,6334.0,0.0,0.0,
2025-08-15T00:40:14.895Z,8,GR86-015-31,-5.0,0.106,-0.215,99.98,5.0,,0.0,0.0,186.64
2025-08-15T00:40:14.938Z,8,GR86-015-31,-5.0,0.107,-0.216,99.99,5.0,,0.0,0.0,
2025-08-15T00:40:14.981Z,8,GR86-015-31,-5.0,0.118,-0.202,99.98,5.0,,0.0,0.0,
2025-08-15T00:40:15.025Z,8,GR86-015-31,-5.0,0.11,-0.201,100.02,5.0,,0.0,0.0,
2025-08-15T00:40:15.068Z,8,GR86-015-31,-4.800000000000001,0.115,-0.208,100.0,5.0,6374.0,0.0,0.0,
2025-08-15T00:40:15.110Z,8,GR86-015-31,-4.4,0.109,-0.167,100.01,5.0,,0.0,0.0,187.22
2025-08-15T00:40:15.154Z,8,GR86-015-31,-4.3,0.101,-0.133,99.99,5.0,,0.0,0.0,
2025-08-15T00:40:15.197Z,8,GR86-015-31,-4.3,0.117,-0.121,100.0,5.0,,0.0,0.0,
2025-08-15T00:40:15.241Z,8,GR86-015-31,-4.3,0.099,-0.117,100.0,5.0,,0.0,0.0,
2025-08-15T00:40:15.284Z,8,GR86-015-31,-4.3,0.109,-0.123,99.98,5.0,6393.0,0.0,0.0,
2025-08-15T00:40:15.326Z,8,GR86-015-31,-4.6000000000000005,0.12,-0.099,100.01,5.0,,0.0,0.0,188.05
2025-08-15T00:40:15.369Z,8,GR86-015-31,-4.7,0.104,-0.114,99.99,5.0,,0.0,0.0,
2025-08-15T00:40:15.412Z,8,GR86-015-31,-4.6000000000000005,0.112,-0.127,100.02,5.0,,0.0,0.0,
2025-08-15T00:40:15.455Z,8,GR86-015-31,-4.6000000000000005,0.129,-0.155,99.99,5.0,,0.0,0.0,
2025-08-15T00:40:15.498Z,8,GR86-015-31,-4.6000000000000005,0.097,-0.184,99.99,5.0,6405.0,0.0,0.0,
2025-08-15T00:40:15.585Z,8,GR86-015-31,-4.6000000000000005,0.098,-0.184,99.99,5.0,,0.0,0.0,188.66
2025-08-15T00:40:15.628Z,8,GR86-015-31,-4.5,0.128,-0.173,100.01,5.0,,0.0,0.0,
2025-08-15T00:40:15.670Z,8,GR86-015-31,-4.3,0.113,-0.176,100.0,5.0,,0.0,0.0,
2025-08-15T00:40:15.714Z,8,GR86-015-31,-4.3,0.128,-0.184,100.0,5.0,6439.0,0.0,0.0,
2025-08-15T00:40:15.756Z,8,GR86-015-31,-4.3,0.115,-0.18,100.0,5.0,,0.0,0.0,189.35
2025-08-15T00:40:15.799Z,8,GR86-015-31,-4.3,0.115,-0.163,99.99,5.0,,0.0,0.0,
2025-08-15T00:40:15.842Z,8,GR86-015-31,-4.0,0.113,-0.166,100.0,5.0,,0.0,0.0,
2025-08-15T00:40:15.885Z,8,GR86-015-31,-3.9,0.118,-0.146,100.0,5.0,,0.0,0.0,
2025-08-15T00:40:15.928Z,8,GR86-015-31,-3.9,0.109,-0.139,100.01,5.0,6460.0,0.0,0.0,
2025-08-15T00:40:15.971Z,8,GR86-015-31,-3.9,0.124,-0.144,99.98,5.0,,0.0,0.0,190.1
2025-08-15T00:40:16.015Z,8,GR86-015-31,-3.8,0.117,-0.104,99.99,5.0,,0.0,0.0,
2025-08-15T00:40:16.057Z,8,GR86-015-31,-3.8,0.136,-0.111,99.98,5.0,,0.0,0.0,
2025-08-15T00:40:16.101Z,8,GR86-015-31,-3.8,0.118,-0.105,100.02,5.0,,0.0,0.0,
2025-08-15T00:40:16.145Z,8,GR86-015-31,-3.8,0.146,-0.131,100.0,5.0,6490.0,0.0,0.0,
2025-08-15T00:40:16.188Z,8,GR86-015-31,-3.8,0.118,-0.12,100.01,5.0,,0.0,0.0,190.87
2025-08-15T00:40:16.230Z,8,GR86-015-31,-3.8,0.111,-0.126,99.99,5.0,,0.0,0.0,
2025-08-15T00:40:16.274Z,8,GR86-015-31,-3.7,0.122,-0.099,100.0,5.0,,0.0,0.0,
2025-08-15T00:40:16.316Z,8,GR86-015-31,-3.7,0.128,-0.097,100.0,5.0,,0.0,0.0,
2025-08-15T00:40:16.359Z,8,GR86-015-31,-3.7,0.118,-0.104,100.0,5.0,6506.0,0.0,0.0,
2025-08-15T00:40:16.402Z,8,GR86-015-31,-3.7,0.138,-0.134,100.01,5.0,,0.0,0.0,192.33
2025-08-15T00:40:16.445Z,8,GR86-015-31,-3.7,0.122,-0.115,100.0,5.0,,0.0,0.0,
2025-08-15T00:40:16.488Z,8,GR86-015-31,-3.6,0.154,-0.119,99.99,5.0,,0.0,0.0,
2025-08-15T00:40:16.534Z,8,GR86-015-31,-3.6,0.115,-0.113,100.0,5.0,,0.0,0.0,
2025-08-15T00:40:16.576Z,8,GR86-015-31,-3.5,0.118,-0.115,99.98,5.0,6536.0,0.0,0.0,
2025-08-15T00:40:16.619Z,8,GR86-015-31,-3.5,0.11,-0.107,100.0,5.0,,0.0,0.0,193.01
2025-08-15T00:40:16.662Z,8,GR86-015-31,-3.4000000000000004,0.139,-0.101,100.01,5.0,,0.0,0.0,
2025-08-15T00:40:16.705Z,8,GR86-015-31,-3.4000000000000004,0.116,-0.101,100.0,5.0,,0.0,0.0,
2025-08-15T00:40:16.748Z,8,GR86-015-31,-3.2,0.116,-0.101,99.99,5.0,,0.0,0.0,
2025-08-15T00:40:16.791Z,8,GR86-015-31,-3.1,0.139,-0.103,99.99,5.0,6558.0,0.0,0.0,
2025-08-15T00:40:16.835Z,8,GR86-015-31,-2.8000000000000003,0.108,-0.092,99.99,5.0,,0.0,0.0,193.79
2025-08-15T00:40:16.878Z,8,GR86-015-31,-2.6,0.099,-0.068,100.0,5.0,,0.0,0.0,
2025-08-15T00:40:16.921Z,8,GR86-015-31,-2.6,0.118,-0.077,99.99,5.0,,0.0,0.0,
2025-08-15T00:40:16.965Z,8,GR86-015-31,-2.6,0.114,-0.073,100.01,5.0,,0.0,0.0,
2025-08-15T00:40:17.007Z,8,GR86-015-31,-2.2,0.123,-0.036,99.98,5.0,6610.0,0.0,0.0,
2025-08-15T00:40:17.050Z,8,GR86-015-31,-1.6,0.136,-0.017,99.98,5.0,,0.0,0.0,194.47
2025-08-15T00:40:17.095Z,8,GR86-015-31,-0.9,0.076,-0.008,99.99,5.0,,0.0,0.0,
2025-08-15T00:40:17.138Z,8,GR86-015-31,-0.7000000000000001,0.1,0.01,99.99,5.0,,0.0,0.0,
2025-08-15T00:40:17.181Z,8,GR86-015-31,-0.7000000000000001,0.102,0.027,99.99,5.0,,0.0,0.0,
2025-08-15T00:40:17.225Z,8,GR86-015-31,-0.5,0.092,0.029,100.01,5.0,6630.0,0.0,0.0,
2025-08-15T00:40:17.268Z,8,GR86-015-31,-0.2,0.127,0.022,100.0,5.0,,0.0,0.0,195.21
2025-08-15T00:40:17.310Z,8,GR86-015-31,0.0,0.123,0.025,100.0,5.0,,0.0,0.0,
2025-08-15T00:40:17.354Z,8,GR86-015-31,0.2,0.083,0.074,100.0,5.0,,0.0,0.0,
2025-08-15T00:40:17.398Z,8,GR86-015-31,0.4,0.083,0.083,100.01,5.0,,0.0,0.0,
2025-08-15T00:40:17.441Z,8,GR86-015-31,0.5,0.087,0.096,100.0,5.0,6642.0,0.0,0.0,
2025-08-15T00:40:17.485Z,8,GR86-015-31,0.5,0.12,0.095,99.99,5.0,,0.0,0.0,195.79
2025-08-15T00:40:17.528Z,8,GR86-015-31,0.6000000000000001,0.107,0.099,100.0,5.0,,0.0,0.0,
2025-08-15T00:40:17.571Z,8,GR86-015-31,0.9,0.117,0.083,99.99,5.0,,0.0,0.0,
2025-08-15T00:40:17.615Z,8,GR86-015-31,1.9,0.086,0.075,99.99,5.0,,0.0,0.0,
2025-08-15T00:40:17.657Z,8,GR86-015-31,2.5,0.084,0.109,100.0,5.0,6670.0,0.0,0.0,
2025-08-15T00:40:17.700Z,8,GR86-015-31,2.9000000000000004,0.115,0.111,100.02,5.0,,0.0,0.0,196.39
2025-08-15T00:40:17.744Z,8,GR86-015-31,3.0,0.093,0.13,100.0,5.0,,0.0,0.0,
2025-08-15T00:40:17.786Z,8,GR86-015-31,3.0,0.127,0.137,100.0,5.0,,0.0,0.0,
2025-08-15T00:40:17.830Z,8,GR86-015-31,3.0,0.111,0.152,99.99,5.0,,0.0,0.0,
2025-08-15T00:40:17.874Z,8,GR86-015-31,1.9,0.086,0.142,100.02,5.0,6680.0,0.0,0.0,
2025-08-15T00:40:17.918Z,8,GR86-015-31,1.2000000000000002,0.095,0.104,100.01,5.0,,0.0,0.0,197.0
2025-08-15T00:40:17.961Z,8,GR86-015-31,0.6000000000000001,0.101,0.103,100.01,5.0,,0.0,0.0,
2025-08-15T00:40:18.005Z,8,GR86-015-31,-0.9,0.123,0.079,100.0,5.0,,0.0,0.0,
2025-08-15T00:40:18.047Z,8,GR86-015-31,-2.1,0.106,0.04,100.01,5.0,,0.0,0.0,
2025-08-15T00:40:18.090Z,8,GR86-015-31,-2.3000000000000003,0.107,-0.013,99.99,5.0,6719.0,0.0,0.0,
2025-08-15T00:40:18.134Z,8,GR86-015-31,-2.2,0.095,-0.084,100.01,5.0,,0.0,0.0,197.58
2025-08-15T00:40:18.177Z,8,GR86-015-31,-2.1,0.11,-0.088,99.99,5.0,,0.0,0.0,
2025-08-15T00:40:18.220Z,8,GR86-015-31,-2.0,0.114,-0.107,99.99,5.0,,0.0,0.0,
2025-08-15T00:40:18.264Z,8,GR86-015-31,-2.1,0.111,-0.107,99.99,5.0,,0.0,0.0,
2025-08-15T00:40:18.306Z,8,GR86-015-31,-1.9,0.123,-0.114,100.01,5.0,6727.0,0.0,0.0,
2025-08-15T00:40:18.349Z,8,GR86-015-31,-1.5,0.101,-0.108,100.0,5.0,,0.0,0.0,198.2
2025-08-15T00:40:18.395Z,8,GR86-015-31,-1.4,0.113,-0.083,99.99,5.0,,0.0,0.0,
2025-08-15T00:40:18.438Z,8,GR86-015-31,-1.4,0.116,-0.059,100.0,5.0,,0.0,0.0,
2025-08-15T00:40:18.481Z,8,GR86-015-31,-1.4,0.128,-0.049,99.99,5.0,,0.0,0.0,
2025-08-15T00:40:18.525Z,8,GR86-015-31,-1.4,0.1,-0.022,100.0,5.0,6752.0,0.0,0.0,
2025-08-15T00:40:18.568Z,8,GR86-015-31,-1.4,0.108,-0.019,99.99,5.0,,0.0,0.0,198.83
2025-08-15T00:40:18.610Z,8,GR86-015-31,-2.1,0.081,-0.016,100.0,5.0,,0.0,0.0,
2025-08-15T00:40:18.654Z,8,GR86-015-31,-2.9000000000000004,0.098,-0.056,99.99,5.0,,0.0,0.0,
2025-08-15T00:40:18.697Z,8,GR86-015-31,-2.9000000000000004,0.119,-0.081,99.99,5.0,,0.0,0.0,
2025-08-15T00:40:18.741Z,8,GR86-015-31,-2.7,0.11,-0.078,99.99,5.0,6767.0,0.0,0.0,
2025-08-15T00:40:18.784Z,8,GR86-015-31,-2.5,0.094,-0.08,99.99,5.0,,0.0,0.0,199.43
2025-08-15T00:40:18.826Z,8,GR86-015-31,-2.4000000000000004,0.072,-0.077,99.99,5.0,,0.0,0.0,
2025-08-15T00:40:18.869Z,8,GR86-015-31,-2.4000000000000004,0.077,-0.093,100.01,5.0,,0.0,0.0,
2025-08-15T00:40:18.912Z,8,GR86-015-31,-2.1,0.079,-0.102,100.0,5.0,,0.0,0.0,
2025-08-15T00:40:18.955Z,8,GR86-015-31,-1.7000000000000002,0.097,-0.066,99.99,5.0,6796.0,0.0,0.0,
2025-08-15T00:40:18.998Z,8,GR86-015-31,-1.7000000000000002,0.086,-0.058,99.99,5.0,,0.0,0.0,200.59
2025-08-15T00:40:19.041Z,8,GR86-015-31,-1.7000000000000002,0.071,-0.042,100.0,5.0,,0.0,0.0,
2025-08-15T00:40:19.085Z,8,GR86-015-31,-1.6,0.095,-0.034,100.0,5.0,,0.0,0.0,
2025-08-15T00:40:19.128Z,8,GR86-015-31,-1.6,0.079,-0.023,100.02,5.0,,0.0,0.0,
2025-08-15T00:40:19.170Z,8,GR86-015-31,-1.9,0.098,-0.006,99.99,5.0,6813.0,0.0,0.0,
2025-08-15T00:40:19.214Z,8,GR86-015-31,-1.9,0.085,-0.008,99.99,5.0,,0.0,0.0,201.19
2025-08-15T00:40:19.256Z,8,GR86-015-31,-2.1,0.057,-0.03,100.0,5.0,,0.0,0.0,
2025-08-15T00:40:19.299Z,8,GR86-015-31,-2.5,0.091,-0.063,99.99,5.0,,0.0,0.0,
2025-08-15T00:40:19.342Z,8,GR86-015-31,-2.9000000000000004,0.076,-0.094,100.02,5.0,,0.0,0.0,
2025-08-15T00:40:19.385Z,8,GR86-015-31,-3.2,0.108,-0.112,99.99,5.0,6838.0,0.0,0.0,
2025-08-15T00:40:19.428Z,8,GR86-015-31,-3.2,0.103,-0.153,100.0,5.0,,0.0,0.0,201.8
2025-08-15T00:40:19.471Z,8,GR86-015-31,-3.0,0.113,-0.172,100.0,5.0,,0.0,0.0,
2025-08-15T00:40:19.515Z,8,GR86-015-31,-0.3,0.121,-0.194,99.99,5.0,,0.0,0.0,
2025-08-15T00:40:19.558Z,8,GR86-015-31,3.3000000000000003,0.093,-0.155,100.0,5.0,,0.0,0.0,
2025-08-15T00:40:19.601Z,8,GR86-015-31,5.7,0.099,-0.096,100.02,5.0,6875.0,0.0,0.0,
2025-08-15T00:40:19.645Z,8,GR86-015-31,6.6000000000000005,0.109,-0.021,99.99,5.0,,0.0,0.0,202.32
2025-08-15T00:40:19.687Z,8,GR86-015-31,6.6000000000000005,0.095,0.079,100.01,5.0,,0.0,0.0,
2025-08-15T00:40:19.730Z,8,GR86-015-31,5.0,0.082,0.15,99.99,5.0,,0.0,0.0,
2025-08-15T00:40:19.774Z,8,GR86-015-31,3.4000000000000004,0.109,0.175,99.99,5.0,,0.0,0.0,
2025-08-15T00:40:19.816Z,8,GR86-015-31,3.4000000000000004,0.098,0.192,100.01,5.0,6899.0,0.0,0.0,
2025-08-15T00:40:19.859Z,8,GR86-015-31,3.7,0.091,0.189,99.99,5.0,,0.0,0.0,202.93
2025-08-15T00:40:19.902Z,8,GR86-015-31,4.1000000000000005,0.069,0.209,100.01,5.0,,0.0,0.0,
2025-08-15T00:40:19.945Z,8,GR86-015-31,4.4,0.092,0.16,100.01,5.0,,0.0,0.0,
2025-08-15T00:40:19.988Z,8,GR86-015-31,5.7,0.082,0.148,100.01,5.0,,0.0,0.0,
2025-08-15T00:40:20.032Z,8,GR86-015-31,7.4,0.075,0.146,100.0,5.0,6912.0,0.0,0.0,
2025-08-15T00:40:20.075Z,8,GR86-015-31,8.6,0.088,0.187,100.02,5.0,,0.0,0.0,203.66
2025-08-15T00:40:20.118Z,8,GR86-015-31,8.9,0.088,0.225,100.01,5.0,,0.0,0.0,
2025-08-15T00:40:20.161Z,8,GR86-015-31,9.4,0.068,0.292,100.0,5.0,,0.0,0.0,
2025-08-15T00:40:20.205Z,8,GR86-015-31,9.9,0.104,0.33,100.01,5.0,,0.0,0.0,
2025-08-15T00:40:20.248Z,8,GR86-015-31,10.3,0.068,0.403,99.99,5.0,6939.0,0.0,0.0,
2025-08-15T00:40:20.291Z,8,GR86-015-31,10.5,0.109,0.397,100.0,5.0,,0.0,0.0,204.25
2025-08-15T00:40:20.335Z,8,GR86-015-31,10.5,0.091,0.41,100.0,5.0,,0.0,0.0,
2025-08-15T00:40:20.378Z,8,GR86-015-31,9.8,0.098,0.397,99.98,5.0,,0.0,0.0,
2025-08-15T00:40:20.421Z,8,GR86-015-31,9.6,0.099,0.382,99.99,5.0,,0.0,0.0,
2025-08-15T00:40:20.465Z,8,GR86-015-31,9.6,0.099,0.348,100.02,5.0,6951.0,0.0,0.0,
2025-08-15T00:40:20.507Z,8,GR86-015-31,9.8,0.071,0.347,100.01,5.0,,0.0,0.0,204.86
2025-08-15T00:40:20.550Z,8,GR86-015-31,11.0,0.071,0.352,99.99,5.0,,0.0,0.0,
2025-08-15T00:40:20.595Z,8,GR86-015-31,12.1,0.086,0.361,99.99,5.0,,0.0,0.0,
2025-08-15T00:40:20.638Z,8,GR86-015-31,12.2,0.066,0.373,99.98,5.0,,0.0,0.0,
2025-08-15T00:40:20.681Z,8,GR86-015-31,12.2,0.06,0.396,99.99,5.0,6970.0,0.0,0.0,
2025-08-15T00:40:20.725Z,8,GR86-015-31,12.3,0.063,0.425,99.99,5.0,,0.0,0.0,205.36
2025-08-15T00:40:20.768Z,8,GR86-015-31,12.5,0.052,0.413,100.0,5.0,,0.0,0.0,
2025-08-15T00:40:20.810Z,8,GR86-015-31,12.5,0.052,0.47,100.0,5.0,,0.0,0.0,
2025-08-15T00:40:20.854Z,8,GR86-015-31,12.5,0.054,0.519,99.99,5.0,,0.0,0.0,
2025-08-15T00:40:20.897Z,8,GR86-015-31,11.5,0.068,0.521,99.99,5.0,6996.0,0.0,0.0,
2025-08-15T00:40:20.941Z,8,GR86-015-31,10.5,0.059,0.496,100.01,5.0,,0.0,0.0,205.75
2025-08-15T00:40:20.984Z,8,GR86-015-31,10.4,0.073,0.47,99.99,5.0,,0.0,0.0,
2025-08-15T00:40:21.069Z,8,GR86-015-31,10.4,0.072,0.423,99.99,5.0,,0.0,0.0,
2025-08-15T00:40:21.114Z,8,GR86-015-31,10.4,0.085,0.344,99.99,5.0,7008.0,0.0,0.0,
2025-08-15T00:40:21.156Z,8,GR86-015-31,10.4,0.069,0.349,99.99,5.0,,0.0,0.0,206.27
2025-08-15T00:40:21.199Z,8,GR86-015-31,10.4,0.081,0.317,99.99,5.0,,0.0,0.0,
2025-08-15T00:40:21.242Z,8,GR86-015-31,10.4,0.054,0.326,100.01,5.0,,0.0,0.0,
2025-08-15T00:40:21.285Z,8,GR86-015-31,10.4,0.084,0.334,99.99,5.0,,0.0,0.0,
2025-08-15T00:40:21.328Z,8,GR86-015-31,10.4,0.043,0.35,100.0,5.0,7015.0,0.0,0.0,
2025-08-15T00:40:21.415Z,8,GR86-015-31,9.2,0.084,0.369,99.99,5.0,,0.0,0.0,206.77
2025-08-15T00:40:21.458Z,8,GR86-015-31,4.6000000000000005,0.052,0.289,99.99,5.0,,0.0,0.0,
2025-08-15T00:40:21.501Z,8,GR86-015-31,4.5,0.076,0.221,99.99,5.0,,0.0,0.0,
2025-08-15T00:40:21.545Z,8,GR86-015-31,4.4,0.069,0.168,99.99,5.0,7042.0,0.0,0.0,
2025-08-15T00:40:21.587Z,8,GR86-015-31,4.5,0.072,0.151,99.99,5.0,,0.0,0.0,207.2
2025-08-15T00:40:21.634Z,8,GR86-015-31,5.4,0.077,0.119,100.03,5.0,,0.0,0.0,
2025-08-15T00:40:21.719Z,8,GR86-015-31,6.0,0.083,0.109,100.01,5.0,,0.0,0.0,
2025-08-15T00:40:21.762Z,8,GR86-015-31,5.9,0.061,0.138,100.02,5.0,7042.0,0.0,0.0,
2025-08-15T00:40:21.805Z,8,GR86-015-31,4.800000000000001,0.061,0.174,100.0,5.0,,0.0,0.0,208.01
2025-08-15T00:40:21.848Z,8,GR86-015-31,4.2,0.077,0.183,99.98,5.0,,0.0,0.0,
2025-08-15T00:40:21.935Z,8,GR86-015-31,3.7,0.074,0.145,100.0,5.0,,0.0,0.0,
2025-08-15T00:40:21.978Z,8,GR86-015-31,3.5,0.07,0.121,100.0,5.0,7066.0,0.0,0.0,
2025-08-15T00:40:22.021Z,8,GR86-015-31,3.5,0.087,0.133,100.0,5.0,,0.0,0.0,208.67
2025-08-15T00:40:22.065Z,8,GR86-015-31,3.6,0.096,0.09,100.0,5.0,,0.0,0.0,
2025-08-15T00:40:22.107Z,8,GR86-015-31,3.9,0.096,0.091,100.01,5.0,,0.0,0.0,
2025-08-15T00:40:22.151Z,8,GR86-015-31,3.9,0.079,0.077,100.01,5.0,,0.0,0.0,
2025-08-15T00:40:22.195Z,8,GR86-015-31,3.9,0.075,0.077,100.0,5.0,7110.0,5.585,5.83,
2025-08-15T00:40:22.238Z,8,GR86-015-31,3.7,0.03,0.074,100.0,5.0,,12.115,12.56,209.39
2025-08-15T00:40:22.281Z,8,GR86-015-31,3.0,-0.126,0.074,100.01,5.0,,16.145,16.525,
2025-08-15T00:40:22.325Z,8,GR86-015-31,2.3000000000000003,-0.185,0.064,100.0,5.0,,14.39,15.215,
2025-08-15T00:40:22.368Z,8,GR86-015-31,2.2,-0.134,0.045,100.01,5.0,,7.295,7.98,
2025-08-15T00:40:22.410Z,8,GR86-015-31,2.1,-0.003,0.013,100.0,5.0,7086.0,2.5500000000000003,3.16,
2025-08-15T00:40:22.455Z,8,GR86-015-31,2.1,0.029,-0.026,100.01,5.0,,4.96,5.25,209.17
2025-08-15T00:40:22.498Z,8,GR86-015-31,2.1,-0.033,-0.029,100.0,5.0,,4.805,5.28,
2025-08-15T00:40:22.541Z,8,GR86-015-31,2.3000000000000003,-0.025,-0.004,99.99,5.0,,4.96,5.4,
2025-08-15T00:40:22.585Z,8,GR86-015-31,3.3000000000000003,-0.027,0.017,100.02,5.0,,5.34,5.585,
2025-08-15T00:40:22.628Z,8,GR86-015-31,4.4,-0.007,0.047,100.01,5.0,7089.0,5.34,5.74,
2025-08-15T00:40:22.671Z,8,GR86-015-31,5.6000000000000005,-0.024,0.052,100.0,5.0,,5.37,5.905,209.05
2025-08-15T00:40:22.715Z,8,GR86-015-31,5.7,-0.034,0.131,100.0,5.0,,5.675,6.21,
2025-08-15T00:40:22.758Z,8,GR86-015-31,5.7,-0.013,0.147,99.99,5.0,,5.675,6.21,
2025-08-15T00:40:22.801Z,8,GR86-015-31,5.6000000000000005,-0.05,0.158,100.01,5.0,,6.715,7.05,
2025-08-15T00:40:22.845Z,8,GR86-015-31,5.6000000000000005,-0.038,0.169,68.32000000000001,5.0,7096.0,14.055,14.45,
2025-08-15T00:40:22.930Z,8,GR86-015-31,5.6000000000000005,-0.396,0.188,2.88,5.0,,37.325,37.525,208.88
2025-08-15T00:40:22.974Z,8,GR86-015-31,5.6000000000000005,-0.89,0.202,2.79,5.0,,51.870000000000005,51.685,
2025-08-15T00:40:23.017Z,8,GR86-015-31,6.7,-1.06,0.198,2.74,5.0,,56.155,56.095,
2025-08-15T00:40:23.060Z,8,GR86-015-31,6.7,-1.057,0.131,2.71,5.0,6723.0,56.72,56.935,
2025-08-15T00:40:23.104Z,8,GR86-015-31,4.3,-0.964,0.2,2.67,5.0,,57.955,59.59,207.73
2025-08-15T00:40:23.147Z,8,GR86-015-31,2.2,-1.056,0.117,2.65,5.0,,60.02,61.055,
2025-08-15T00:40:23.190Z,8,GR86-015-31,2.1,-1.1,0.141,2.63,5.0,,64.87,64.84,
2025-08-15T00:40:23.234Z,8,GR86-015-31,2.6,-1.148,0.08,2.61,5.0,,75.035,76.115,
2025-08-15T00:40:23.276Z,8,GR86-015-31,4.800000000000001,-1.202,0.116,2.6,5.0,6356.0,79.565,79.655,
2025-08-15T00:40:23.319Z,8,GR86-015-31,6.9,-1.193,0.171,2.59,5.0,,83.7,84.83,201.83
2025-08-15T00:40:23.362Z,8,GR86-015-31,8.200000000000001,-1.27,0.162,8.39,5.0,,86.095,87.625,
2025-08-15T00:40:23.405Z,8,GR86-015-31,9.8,-1.254,0.197,53.0,4.0,,85.84,86.675,
2025-08-15T00:40:23.448Z,8,GR86-015-31,11.7,-1.203,0.194,25.89,4.0,,85.32000000000001,85.96000000000001,
2025-08-15T00:40:23.491Z,8,GR86-015-31,11.8,-1.301,0.232,4.75,4.0,6157.0,85.93,87.865,
2025-08-15T00:40:23.535Z,8,GR86-015-31,4.5,-1.251,0.33,3.87,5.0,,74.44,75.55,194.06
2025-08-15T00:40:23.578Z,8,GR86-015-31,0.5,-1.14,0.358,3.47,5.0,,63.74,64.06,
2025-08-15T00:40:23.621Z,8,GR86-015-31,-1.0,-1.119,0.304,3.18,5.0,,57.99,59.15,
2025-08-15T00:40:23.665Z,8,GR86-015-31,-2.1,-1.104,0.281,2.98,5.0,,56.63,58.245000000000005,
2025-08-15T00:40:23.707Z,8,GR86-015-31,-2.1,-1.101,0.282,2.85,5.0,6053.0,56.995000000000005,58.46,
2025-08-15T00:40:23.750Z,8,GR86-015-31,-1.4,-1.128,0.178,2.76,5.0,,57.055,58.4,185.91
2025-08-15T00:40:23.795Z,8,GR86-015-31,7.300000000000001,-1.11,0.19,2.69,5.0,,58.095,58.795,
2025-08-15T00:40:23.838Z,8,GR86-015-31,11.9,-1.167,0.224,2.65,5.0,,59.055,59.42,
2025-08-15T00:40:23.881Z,8,GR86-015-31,12.7,-1.119,0.235,2.63,5.0,,59.455,59.805,
2025-08-15T00:40:23.925Z,8,GR86-015-31,12.6,-1.154,0.197,2.63,5.0,5755.0,60.705,62.4,
2025-08-15T00:40:23.968Z,8,GR86-015-31,11.5,-1.165,0.16,23.08,5.0,,62.66,63.405,179.63
2025-08-15T00:40:24.010Z,8,GR86-015-31,8.8,-1.234,0.172,69.62,5.0,,67.69500000000001,67.905,
2025-08-15T00:40:24.054Z,8,GR86-015-31,2.7,-1.303,0.113,51.58,4.0,,75.245,76.08500000000001,
2025-08-15T00:40:24.096Z,8,GR86-015-31,1.8,-1.316,0.042,4.7700000000000005,4.0,,79.4,81.06,
2025-08-15T00:40:24.139Z,8,GR86-015-31,1.9,-1.287,0.116,2.76,4.0,5408.0,83.61,84.95,
2025-08-15T00:40:24.182Z,8,GR86-015-31,2.0,-1.299,0.223,2.59,4.0,,86.465,86.875,170.35
2025-08-15T00:40:24.225Z,8,GR86-015-31,1.1,-1.373,0.172,2.5500000000000003,4.0,,88.645,89.67,
2025-08-15T00:40:24.269Z,8,GR86-015-31,1.1,-1.322,0.2,2.53,4.0,,87.685,88.645,
2025-08-15T00:40:24.312Z,8,GR86-015-31,4.800000000000001,-1.267,0.056,2.52,4.0,,82.295,83.61,
2025-08-15T00:40:24.355Z,8,GR86-015-31,9.3,-1.194,0.14,2.51,4.0,5852.0,68.96000000000001,70.09,
2025-08-15T00:40:24.398Z,8,GR86-015-31,9.6,-1.163,0.136,2.51,4.0,,54.645,56.155,153.88
2025-08-15T00:40:24.441Z,8,GR86-015-31,9.3,-0.99,0.16,2.51,4.0,,49.045,50.13,
2025-08-15T00:40:24.485Z,8,GR86-015-31,9.0,-1.053,0.109,2.5,4.0,,49.23,49.73,
2025-08-15T00:40:24.528Z,8,GR86-015-31,9.0,-1.069,0.129,2.51,4.0,,51.715,52.08,
2025-08-15T00:40:24.570Z,8,GR86-015-31,10.9,-1.085,0.16,14.13,4.0,5619.0,56.525,56.75,
2025-08-15T00:40:24.614Z,8,GR86-015-31,10.9,-1.195,0.207,46.95,3.0,,66.045,66.185,146.09
2025-08-15T00:40:24.656Z,8,GR86-015-31,7.1000000000000005,-1.29,0.169,6.42,3.0,,72.76,74.345,
2025-08-15T00:40:24.699Z,8,GR86-015-31,5.5,-1.32,0.129,4.18,3.0,,75.55,77.305,
2025-08-15T00:40:24.742Z,8,GR86-015-31,5.1000000000000005,-1.148,0.2,3.78,3.0,,71.645,72.24,
2025-08-15T00:40:24.785Z,8,GR86-015-31,4.9,-1.288,0.115,3.39,3.0,5539.0,70.395,71.95,
2025-08-15T00:40:24.828Z,8,GR86-015-31,3.4000000000000004,-1.107,0.271,3.09,3.0,,70.99,71.89,138.65
2025-08-15T00:40:24.871Z,8,GR86-015-31,2.9000000000000004,-1.118,0.171,2.92,3.0,,72.515,73.2,
2025-08-15T00:40:24.958Z,8,GR86-015-31,3.3000000000000003,-1.254,0.261,2.76,3.0,,81.99,82.74,
2025-08-15T00:40:25.045Z,8,GR86-015-31,10.4,-1.15,0.299,2.63,3.0,5689.0,79.14,80.62,130.83
2025-08-15T00:40:25.087Z,8,GR86-015-31,10.2,-1.288,0.09,30.31,3.0,,78.605,79.275,
2025-08-15T00:40:25.130Z,8,GR86-015-31,10.1,-1.193,0.113,75.59,2.0,,73.995,75.005,
2025-08-15T00:40:25.174Z,8,GR86-015-31,9.5,-1.289,0.051,6.5200000000000005,2.0,,63.620000000000005,65.145,
2025-08-15T00:40:25.216Z,8,GR86-015-31,9.3,-1.172,0.015,4.0,2.0,5432.0,58.245000000000005,59.955,
2025-08-15T00:40:25.259Z,8,GR86-015-31,9.2,-1.149,0.062,3.51,2.0,,53.21,54.02,121.77
2025-08-15T00:40:25.302Z,8,GR86-015-31,9.2,-1.342,0.012,3.16,2.0,,46.77,47.67,
2025-08-15T00:40:25.389Z,8,GR86-015-31,9.1,-1.045,0.157,2.94,2.0,,41.37,42.33,
2025-08-15T00:40:25.432Z,8,GR86-015-31,9.9,-0.997,0.137,2.72,2.0,6060.0,34.455,35.31,
2025-08-15T00:40:25.475Z,8,GR86-015-31,14.5,-0.969,0.187,2.66,2.0,,36.03,36.7,114.34
2025-08-15T00:40:25.518Z,8,GR86-015-31,16.6,-0.855,0.171,2.63,2.0,,37.205,37.705,
2025-08-15T00:40:25.561Z,8,GR86-015-31,16.7,-0.869,0.394,2.61,2.0,,39.43,39.785,
2025-08-15T00:40:25.605Z,8,GR86-015-31,16.7,-0.907,0.253,4.4,2.0,,44.195,44.68,
2025-08-15T00:40:25.648Z,8,GR86-015-31,16.7,-1.026,0.31,46.51,1.0,5949.0,50.65,51.09,
2025-08-15T00:40:25.691Z,8,GR86-015-31,16.7,-1.101,0.33,35.61,1.0,,55.975,56.555,107.94
2025-08-15T00:40:25.735Z,8,GR86-015-31,16.5,-1.277,0.269,4.54,1.0,,55.975,57.27,
2025-08-15T00:40:25.778Z,8,GR86-015-31,16.400000000000002,-1.189,0.449,4.1,1.0,,46.895,47.81,
2025-08-15T00:40:25.821Z,8,GR86-015-31,16.3,-1.228,0.269,3.66,1.0,,41.28,41.965,
2025-08-15T00:40:25.865Z,8,GR86-015-31,15.7,-0.974,0.492,3.25,1.0,5969.0,37.705,38.625,
2025-08-15T00:40:25.907Z,8,GR86-015-31,15.6,-0.796,0.53,2.97,1.0,,29.435,30.275,102.07
2025-08-15T00:40:25.950Z,8,GR86-015-31,19.8,-0.793,0.426,2.76,1.0,,23.865,24.615,
2025-08-15T00:40:25.995Z,8,GR86-015-31,34.9,-0.794,0.677,2.66,1.0,,23.53,24.11,
2025-08-15T00:40:26.038Z,8,GR86-015-31,43.8,-0.685,0.515,2.61,1.0,,24.46,25.12,
2025-08-15T00:40:26.081Z,8,GR86-015-31,46.7,-0.712,0.858,2.6,1.0,6535.0,23.53,24.31,
2025-08-15T00:40:26.125Z,8,GR86-015-31,46.900000000000006,-0.613,0.7030000000000001,2.59,1.0,,20.02,20.875,95.16
2025-08-15T00:40:26.168Z,8,GR86-015-31,46.900000000000006,-0.611,0.625,2.58,1.0,,16.315,17.09,
2025-08-15T00:40:26.210Z,8,GR86-015-31,51.6,-0.529,0.798,2.57,1.0,,15.475,16.405,
2025-08-15T00:40:26.254Z,8,GR86-015-31,71.4,-0.545,0.729,2.56,1.0,,14.45,15.215,
2025-08-15T00:40:26.297Z,8,GR86-015-31,77.5,-0.518,0.866,2.54,1.0,6344.0,12.74,13.37,
2025-08-15T00:40:26.340Z,8,GR86-015-31,78.2,-0.483,0.902,2.53,1.0,,12.24,12.65,89.9
2025-08-15T00:40:26.384Z,8,GR86-015-31,78.30000000000001,-0.478,0.965,2.52,1.0,,11.31,11.965,
2025-08-15T00:40:26.469Z,8,GR86-015-31,73.5,-0.451,0.97,2.51,1.0,,6.24,6.655,
2025-08-15T00:40:26.512Z,8,GR86-015-31,61.3,-0.176,0.942,2.52,1.0,6067.0,0.0,0.0,
2025-08-15T00:40:26.555Z,8,GR86-015-31,74.9,-0.198,1.013,2.51,1.0,,0.0,0.0,86.21000000000001
2025-08-15T00:40:26.598Z,8,GR86-015-31,82.5,-0.203,1.036,2.52,1.0,,0.0,0.0,
2025-08-15T00:40:26.641Z,8,GR86-015-31,84.5,-0.182,1.049,2.5,1.0,,0.0,0.0,
2025-08-15T00:40:26.685Z,8,GR86-015-31,84.4,-0.182,1.122,2.53,1.0,,0.0,0.0,
2025-08-15T00:40:26.728Z,8,GR86-015-31,79.80000000000001,-0.181,1.074,2.74,1.0,5896.0,0.0,0.0,
2025-08-15T00:40:26.770Z,8,GR86-015-31,72.60000000000001,-0.198,1.076,2.81,1.0,,0.0,0.0,84.03
2025-08-15T00:40:26.814Z,8,GR86-015-31,59.0,-0.181,1.018,2.89,1.0,,0.0,0.0,
2025-08-15T00:40:26.856Z,8,GR86-015-31,50.1,-0.182,0.98,2.74,1.0,,0.0,0.0,
2025-08-15T00:40:26.899Z,8,GR86-015-31,53.3,-0.159,0.902,2.72,1.0,,6.99,7.205,
2025-08-15T00:40:26.942Z,8,GR86-015-31,74.5,-0.271,0.926,2.72,1.0,5788.0,13.46,13.61,
2025-08-15T00:40:26.985Z,8,GR86-015-31,96.9,-0.411,0.961,2.68,1.0,,14.025,14.205,82.14
2025-08-15T00:40:27.028Z,8,GR86-015-31,109.4,-0.382,1.061,2.81,1.0,,7.555,7.705,
2025-08-15T00:40:27.071Z,8,GR86-015-31,111.5,-0.286,1.15,2.93,1.0,,0.0,0.0,
2025-08-15T00:40:27.115Z,8,GR86-015-31,100.2,-0.241,1.203,19.89,1.0,,0.0,0.0,
2025-08-15T00:40:27.157Z,8,GR86-015-31,95.4,-0.228,1.178,20.47,1.0,5707.0,0.0,0.0,
2025-08-15T00:40:27.200Z,8,GR86-015-31,100.9,-0.208,1.182,21.1,1.0,,0.0,0.0,78.59
2025-08-15T00:40:27.244Z,8,GR86-015-31,108.6,-0.158,1.233,23.61,1.0,,0.0,0.0,
2025-08-15T00:40:27.286Z,8,GR86-015-31,107.6,-0.113,1.215,29.2,1.0,,0.0,0.0,
2025-08-15T00:40:27.329Z,8,GR86-015-31,93.7,-0.113,1.228,31.56,1.0,,0.0,0.0,
2025-08-15T00:40:27.372Z,8,GR86-015-31,90.0,0.049,1.196,32.660000000000004,1.0,5508.0,0.0,0.0,
2025-08-15T00:40:27.458Z,8,GR86-015-31,99.5,0.224,1.168,32.7,1.0,,0.0,0.0,77.68
2025-08-15T00:40:27.501Z,8,GR86-015-31,102.7,0.252,1.184,36.96,1.0,,0.0,0.0,
2025-08-15T00:40:27.545Z,8,GR86-015-31,102.7,0.214,1.203,41.07,1.0,,0.0,0.0,
2025-08-15T00:40:27.587Z,8,GR86-015-31,102.7,0.193,1.206,78.53,1.0,5942.0,0.0,0.0,
2025-08-15T00:40:27.630Z,8,GR86-015-31,102.7,0.176,1.238,100.11,1.0,,0.0,0.0,77.52
2025-08-15T00:40:27.674Z,8,GR86-015-31,96.4,0.217,1.197,100.11,1.0,,0.0,0.0,
2025-08-15T00:40:27.717Z,8,GR86-015-31,76.0,0.287,1.256,100.11,1.0,,0.0,0.0,
2025-08-15T00:40:27.761Z,8,GR86-015-31,44.0,0.406,1.175,100.09,1.0,,0.0,0.0,
2025-08-15T00:40:27.804Z,8,GR86-015-31,17.7,0.41,0.994,100.09,1.0,6133.0,0.0,0.0,
2025-08-15T00:40:27.846Z,8,GR86-015-31,18.8,0.389,0.803,100.13,1.0,,0.0,0.0,78.60000000000001
2025-08-15T00:40:27.890Z,8,GR86-015-31,46.7,0.416,0.876,100.17,1.0,,0.0,0.0,
2025-08-15T00:40:27.932Z,8,GR86-015-31,76.5,0.401,1.064,100.19,1.0,,0.0,0.0,
2025-08-15T00:40:27.975Z,8,GR86-015-31,98.1,0.322,1.178,100.14,1.0,,0.0,0.0,
2025-08-15T00:40:28.018Z,8,GR86-015-31,99.1,0.311,1.116,100.1,1.0,6130.0,0.0,0.0,
2025-08-15T00:40:28.061Z,8,GR86-015-31,99.5,0.294,1.089,100.11,1.0,,0.0,0.0,80.69
2025-08-15T00:40:28.105Z,8,GR86-015-31,100.4,0.312,1.177,100.12,1.0,,0.0,0.0,
2025-08-15T00:40:28.147Z,8,GR86-015-31,100.4,0.284,1.145,100.13,1.0,,0.0,0.0,
2025-08-15T00:40:28.190Z,8,GR86-015-31,98.2,0.261,1.171,100.13,1.0,,0.0,0.0,
2025-08-15T00:40:28.234Z,8,GR86-015-31,88.2,0.247,1.153,100.11,1.0,6289.0,0.0,0.0,
2025-08-15T00:40:28.276Z,8,GR86-015-31,80.5,0.298,1.163,100.11,1.0,,0.0,0.0,82.91
2025-08-15T00:40:28.319Z,8,GR86-015-31,67.2,0.299,1.166,100.11,1.0,,0.0,0.0,
2025-08-15T00:40:28.405Z,8,GR86-015-31,57.2,0.319,1.143,100.11,1.0,,0.0,0.0,
2025-08-15T00:40:28.448Z,8,GR86-015-31,53.900000000000006,0.367,1.102,100.1,1.0,6570.0,0.0,0.0,
2025-08-15T00:40:28.491Z,8,GR86-015-31,51.5,0.338,1.088,100.09,1.0,,0.0,0.0,85.49
2025-08-15T00:40:28.535Z,8,GR86-015-31,54.5,0.315,1.082,100.13,1.0,,0.0,0.0,
2025-08-15T00:40:28.578Z,8,GR86-015-31,67.8,0.311,1.154,100.14,1.0,,0.0,0.0,
2025-08-15T00:40:28.621Z,8,GR86-015-31,81.5,0.358,1.15,100.14,1.0,,0.0,0.0,
2025-08-15T00:40:28.665Z,8,GR86-015-31,86.5,0.336,1.2,100.12,1.0,6737.0,0.0,0.0,
2025-08-15T00:40:28.707Z,8,GR86-015-31,85.4,0.34,1.203,100.11,1.0,,0.0,0.0,87.26
2025-08-15T00:40:28.750Z,8,GR86-015-31,76.9,0.293,1.207,100.08,1.0,,0.0,0.0,
2025-08-15T00:40:28.795Z,8,GR86-015-31,64.3,0.309,1.257,100.08,1.0,,0.0,0.0,
2025-08-15T00:40:28.838Z,8,GR86-015-31,58.5,0.348,1.244,100.11,1.0,,0.0,0.0,
2025-08-15T00:40:28.925Z,8,GR86-015-31,55.900000000000006,0.363,1.246,100.09,1.0,6873.0,0.0,0.0,88.87
2025-08-15T00:40:28.968Z,8,GR86-015-31,54.7,0.336,1.172,100.1,1.0,,0.0,0.0,
2025-08-15T00:40:29.010Z,8,GR86-015-31,54.400000000000006,0.355,0.838,100.09,1.0,,0.0,0.0,
2025-08-15T00:40:29.055Z,8,GR86-015-31,54.3,0.425,0.886,100.08,1.0,,0.0,0.0,
2025-08-15T00:40:29.098Z,8,GR86-015-31,53.5,0.324,0.434,100.07,1.0,6983.0,0.0,0.0,
2025-08-15T00:40:29.141Z,8,GR86-015-31,49.6,0.03,0.259,100.07,1.0,,0.0,0.0,91.19
2025-08-15T00:40:29.185Z,8,GR86-015-31,44.400000000000006,-0.026,1.022,100.06,1.0,,0.0,0.0,
2025-08-15T00:40:29.228Z,8,GR86-015-31,38.3,0.109,0.838,100.05,2.0,,0.0,0.0,
2025-08-15T00:40:29.271Z,8,GR86-015-31,36.2,0.605,0.529,100.07,2.0,,0.0,0.0,
2025-08-15T00:40:29.315Z,8,GR86-015-31,37.2,0.717,0.79,100.05,2.0,6724.0,0.0,0.0,
2025-08-15T00:40:29.358Z,8,GR86-015-31,36.0,0.682,0.796,100.07,2.0,,0.0,0.0,92.49
2025-08-15T00:40:29.401Z,8,GR86-015-31,29.5,0.508,0.873,100.09,2.0,,0.0,0.0,
2025-08-15T00:40:29.445Z,8,GR86-015-31,22.4,0.25,1.152,100.07,2.0,,0.0,0.0,
2025-08-15T00:40:29.488Z,8,GR86-015-31,15.0,0.057,1.16,100.05,2.0,,0.0,0.0,
2025-08-15T00:40:29.530Z,8,GR86-015-31,8.0,0.168,1.134,100.05,2.0,5841.0,0.0,0.0,
2025-08-15T00:40:29.574Z,8,GR86-015-31,10.0,0.203,0.954,100.09,2.0,,0.0,0.0,93.81
2025-08-15T00:40:29.617Z,8,GR86-015-31,33.1,-0.021,0.876,100.11,2.0,,0.0,0.0,
2025-08-15T00:40:29.704Z,8,GR86-015-31,58.3,0.203,0.884,100.08,2.0,,0.0,0.0,
2025-08-15T00:40:29.747Z,8,GR86-015-31,72.9,0.58,1.106,100.05,2.0,5823.0,0.0,0.0,
2025-08-15T00:40:29.790Z,8,GR86-015-31,64.4,0.442,1.406,100.05,2.0,,0.0,0.0,96.79
2025-08-15T00:40:29.834Z,8,GR86-015-31,45.7,0.279,1.058,100.02,2.0,,0.0,0.0,
2025-08-15T00:40:29.876Z,8,GR86-015-31,31.3,0.476,1.025,100.02,2.0,,0.0,0.0,
2025-08-15T00:40:29.919Z,8,GR86-015-31,25.700000000000003,0.5750000000000001,1.02,100.05,2.0,,0.0,0.0,
2025-08-15T00:40:29.962Z,8,GR86-015-31,24.9,0.715,1.121,100.05,2.0,5819.0,0.0,0.0,
2025-08-15T00:40:30.005Z,8,GR86-015-31,25.1,0.612,0.757,100.05,2.0,,0.0,0.0,99.46
2025-08-15T00:40:30.048Z,8,GR86-015-31,27.0,0.207,0.839,100.05,2.0,,0.0,0.0,
2025-08-15T00:40:30.092Z,8,GR86-015-31,26.9,-0.06,0.736,100.05,2.0,,0.0,0.0,
2025-08-15T00:40:30.135Z,8,GR86-015-31,26.700000000000003,0.277,0.472,100.01,2.0,,0.0,0.0,
2025-08-15T00:40:30.178Z,8,GR86-015-31,26.700000000000003,0.337,0.622,100.0,2.0,5846.0,0.0,0.0,
2025-08-15T00:40:30.221Z,8,GR86-015-31,26.6,-0.078,0.38,99.99,2.0,,0.0,0.0,100.11
2025-08-15T00:40:30.265Z,8,GR86-015-31,26.0,-0.124,0.374,100.01,2.0,,0.0,0.0,
2025-08-15T00:40:30.307Z,8,GR86-015-31,23.0,0.233,0.232,99.99,2.0,,0.0,0.0,
2025-08-15T00:40:30.350Z,8,GR86-015-31,17.3,-0.072,-0.065,99.99,2.0,,0.0,0.0,
2025-08-15T00:40:30.395Z,8,GR86-015-31,7.4,0.681,0.177,99.99,2.0,6092.0,0.0,0.0,
2025-08-15T00:40:30.438Z,8,GR86-015-31,0.4,-0.052,0.053,99.98,2.0,,0.0,0.0,101.46
2025-08-15T00:40:30.481Z,8,GR86-015-31,-5.4,-0.172,0.066,100.01,2.0,,0.0,0.0,
2025-08-15T00:40:30.525Z,8,GR86-015-31,-6.800000000000001,0.305,0.282,100.02,2.0,,0.0,0.0,
2025-08-15T00:40:30.568Z,8,GR86-015-31,-8.5,0.489,0.091,100.02,2.0,,0.0,0.0,
2025-08-15T00:40:30.611Z,8,GR86-015-31,-10.6,0.322,0.18,100.01,2.0,6246.0,0.0,0.0,
2025-08-15T00:40:30.696Z,8,GR86-015-31,-10.1,0.24,-0.107,99.99,2.0,,0.0,0.0,103.59
2025-08-15T00:40:30.739Z,8,GR86-015-31,-6.2,0.206,-0.078,100.0,2.0,,0.0,0.0,
2025-08-15T00:40:30.782Z,8,GR86-015-31,-6.4,-0.183,-0.074,99.99,2.0,,0.0,0.0,
2025-08-15T00:40:30.825Z,8,GR86-015-31,-6.1000000000000005,-0.19,-0.28,99.99,2.0,6309.0,0.0,0.0,
2025-08-15T00:40:30.869Z,8,GR86-015-31,-3.4000000000000004,-0.015,-0.259,100.02,2.0,,0.0,0.0,105.02
2025-08-15T00:40:30.912Z,8,GR86-015-31,0.7000000000000001,0.204,-0.433,99.99,2.0,,0.0,0.0,
2025-08-15T00:40:30.955Z,8,GR86-015-31,3.0,0.591,-0.473,100.01,2.0,,0.0,0.0,
2025-08-15T00:40:30.998Z,8,GR86-015-31,4.3,0.35,-0.484,100.01,2.0,,0.0,0.0,
2025-08-15T00:40:31.041Z,8,GR86-015-31,5.300000000000001,0.39,-0.3,100.0,2.0,6202.0,0.0,0.0,
2025-08-15T00:40:31.085Z,8,GR86-015-31,5.300000000000001,0.338,-0.273,100.01,2.0,,0.0,0.0,106.35
2025-08-15T00:40:31.128Z,8,GR86-015-31,5.0,0.335,-0.142,99.99,2.0,,0.0,0.0,
2025-08-15T00:40:31.170Z,8,GR86-015-31,2.4000000000000004,0.363,-0.059,100.01,2.0,,0.0,0.0,
2025-08-15T00:40:31.214Z,8,GR86-015-31,-3.4000000000000004,0.242,0.069,99.99,2.0,,0.0,0.0,
2025-08-15T00:40:31.299Z,8,GR86-015-31,-3.8,0.248,0.011,100.0,2.0,6373.0,0.0,0.0,108.36
2025-08-15T00:40:31.342Z,8,GR86-015-31,-2.2,0.297,0.055,99.99,2.0,,0.0,0.0,
2025-08-15T00:40:31.385Z,8,GR86-015-31,-1.6,0.279,0.009,100.0,2.0,,0.0,0.0,
2025-08-15T00:40:31.428Z,8,GR86-015-31,-1.5,0.319,-0.046,99.99,2.0,,0.0,0.0,
2025-08-15T00:40:31.471Z,8,GR86-015-31,-1.6,0.287,-0.117,100.01,2.0,6401.0,0.0,0.0,
2025-08-15T00:40:31.515Z,8,GR86-015-31,-1.7000000000000002,0.262,-0.188,100.02,2.0,,0.0,0.0,110.2
2025-08-15T00:40:31.558Z,8,GR86-015-31,-1.7000000000000002,0.345,-0.183,100.01,2.0,,0.0,0.0,
2025-08-15T00:40:31.602Z,8,GR86-015-31,-1.7000000000000002,0.312,-0.178,99.99,2.0,,0.0,0.0,
2025-08-15T00:40:31.645Z,8,GR86-015-31,-1.9,0.296,-0.12,100.0,2.0,,0.0,0.0,
2025-08-15T00:40:31.687Z,8,GR86-015-31,-1.9,0.303,-0.097,99.99,2.0,6514.0,0.0,0.0,
2025-08-15T00:40:31.730Z,8,GR86-015-31,-1.8,0.305,-0.084,100.0,2.0,,0.0,0.0,111.69
2025-08-15T00:40:31.774Z,8,GR86-015-31,-1.9,0.31,-0.064,100.01,2.0,,0.0,0.0,
2025-08-15T00:40:31.816Z,8,GR86-015-31,-2.5,0.294,-0.075,99.99,2.0,,0.0,0.0,
2025-08-15T00:40:31.859Z,8,GR86-015-31,-4.0,0.304,-0.086,99.98,2.0,,0.0,0.0,
2025-08-15T00:40:31.902Z,8,GR86-015-31,-5.0,0.296,-0.088,99.98,2.0,6570.0,0.0,0.0,
2025-08-15T00:40:31.945Z,8,GR86-015-31,-5.2,0.303,-0.118,100.02,2.0,,0.0,0.0,113.42
2025-08-15T00:40:31.989Z,8,GR86-015-31,-5.1000000000000005,0.298,-0.12,99.99,2.0,,0.0,0.0,
2025-08-15T00:40:32.032Z,8,GR86-015-31,-5.0,0.294,-0.112,100.01,2.0,,0.0,0.0,
2025-08-15T00:40:32.075Z,8,GR86-015-31,-5.0,0.303,-0.127,99.99,2.0,,0.0,0.0,
2025-08-15T00:40:32.161Z,8,GR86-015-31,-5.0,0.312,-0.133,99.99,2.0,6658.0,0.0,0.0,114.93
2025-08-15T00:40:32.205Z,8,GR86-015-31,-4.9,0.288,-0.134,99.99,2.0,,0.0,0.0,
2025-08-15T00:40:32.248Z,8,GR86-015-31,-4.9,0.312,-0.13,100.01,2.0,,0.0,0.0,
2025-08-15T00:40:32.292Z,8,GR86-015-31,-4.9,0.298,-0.127,99.98,2.0,,0.0,0.0,
2025-08-15T00:40:32.335Z,8,GR86-015-31,-4.9,0.296,-0.106,100.0,2.0,6728.0,0.0,0.0,
2025-08-15T00:40:32.378Z,8,GR86-015-31,-4.9,0.3,-0.112,99.99,2.0,,0.0,0.0,116.45
2025-08-15T00:40:32.421Z,8,GR86-015-31,-4.9,0.299,-0.12,99.99,2.0,,0.0,0.0,
2025-08-15T00:40:32.465Z,8,GR86-015-31,-4.9,0.301,-0.103,99.99,2.0,,0.0,0.0,
2025-08-15T00:40:32.507Z,8,GR86-015-31,-4.9,0.298,-0.091,99.99,2.0,,0.0,0.0,
2025-08-15T00:40:32.550Z,8,GR86-015-31,-4.9,0.299,-0.081,99.99,2.0,6822.0,0.0,0.0,
2025-08-15T00:40:32.595Z,8,GR86-015-31,-4.9,0.302,-0.083,99.99,2.0,,0.0,0.0,119.43
2025-08-15T00:40:32.638Z,8,GR86-015-31,-4.9,0.294,-0.09,100.0,2.0,,0.0,0.0,
2025-08-15T00:40:32.681Z,8,GR86-015-31,-4.9,0.297,-0.081,100.0,2.0,,0.0,0.0,
2025-08-15T00:40:32.725Z,8,GR86-015-31,-4.9,0.299,-0.078,100.01,2.0,,0.0,0.0,
2025-08-15T00:40:32.768Z,8,GR86-015-31,-4.9,0.287,-0.068,100.0,2.0,6904.0,0.0,0.0,
2025-08-15T00:40:32.810Z,8,GR86-015-31,-4.9,0.294,-0.068,100.0,2.0,,0.0,0.0,120.79
2025-08-15T00:40:32.854Z,8,GR86-015-31,-4.6000000000000005,0.284,-0.072,99.99,2.0,,0.0,0.0,
2025-08-15T00:40:32.940Z,8,GR86-015-31,-4.4,0.302,-0.075,100.0,2.0,,0.0,0.0,
2025-08-15T00:40:32.984Z,8,GR86-015-31,-4.2,0.294,-0.061,99.98,2.0,6970.0,0.0,0.0,
2025-08-15T00:40:33.026Z,8,GR86-015-31,-4.1000000000000005,0.31,-0.068,99.99,2.0,,0.0,0.0,122.0
2025-08-15T00:40:33.069Z,8,GR86-015-31,-4.0,0.268,-0.054,100.0,2.0,,0.0,0.0,
2025-08-15T00:40:33.112Z,8,GR86-015-31,-4.0,0.287,-0.06,100.0,2.0,,0.0,0.0,
2025-08-15T00:40:33.155Z,8,GR86-015-31,-3.8,0.293,-0.04,100.0,2.0,,0.0,0.0,
2025-08-15T00:40:33.241Z,8,GR86-015-31,-3.8,0.31,-0.048,99.99,2.0,7128.0,0.0,0.0,123.14
2025-08-15T00:40:33.285Z,8,GR86-015-31,-3.6,0.282,-0.041,100.01,2.0,,0.0,0.0,
2025-08-15T00:40:33.328Z,8,GR86-015-31,-3.5,0.307,-0.038,99.99,2.0,,0.0,0.0,
2025-08-15T00:40:33.370Z,8,GR86-015-31,-3.5,0.266,-0.05,99.97,2.0,,0.0,0.0,
2025-08-15T00:40:33.456Z,8,GR86-015-31,-3.4000000000000004,0.478,0.01,99.98,3.0,7068.0,0.0,0.0,124.36
2025-08-15T00:40:33.499Z,8,GR86-015-31,-3.2,0.352,-0.129,99.98,3.0,,0.0,0.0,
2025-08-15T00:40:33.542Z,8,GR86-015-31,-3.2,0.537,-0.03,99.96,3.0,,0.0,0.0,
2025-08-15T00:40:33.585Z,8,GR86-015-31,-3.2,0.294,0.01,99.96,3.0,,0.0,0.0,
2025-08-15T00:40:33.628Z,8,GR86-015-31,-3.2,0.115,-0.107,99.97,3.0,5817.0,0.0,0.0,
2025-08-15T00:40:33.671Z,8,GR86-015-31,-3.2,0.145,-0.043,99.96,3.0,,0.0,0.0,125.18
2025-08-15T00:40:33.715Z,8,GR86-015-31,-3.1,0.334,-0.098,99.97,3.0,,0.0,0.0,
2025-08-15T00:40:33.757Z,8,GR86-015-31,-3.1,0.294,-0.072,99.99,3.0,,0.0,0.0,
2025-08-15T00:40:33.800Z,8,GR86-015-31,-3.1,0.232,-0.012,100.01,3.0,,0.0,0.0,
2025-08-15T00:40:33.845Z,8,GR86-015-31,-3.1,0.206,-0.079,100.0,3.0,5894.0,0.0,0.0,
2025-08-15T00:40:33.887Z,8,GR86-015-31,-3.1,0.224,-0.042,100.01,3.0,,0.0,0.0,126.49
2025-08-15T00:40:33.930Z,8,GR86-015-31,-3.1,0.268,-0.029,100.02,3.0,,0.0,0.0,
2025-08-15T00:40:33.974Z,8,GR86-015-31,-3.0,0.236,-0.04,100.01,3.0,,0.0,0.0,
2025-08-15T00:40:34.016Z,8,GR86-015-31,-2.9000000000000004,0.243,-0.043,99.99,3.0,,0.0,0.0,
2025-08-15T00:40:34.059Z,8,GR86-015-31,-2.8000000000000003,0.241,-0.04,99.99,3.0,5958.0,0.0,0.0,
2025-08-15T00:40:34.102Z,8,GR86-015-31,-2.8000000000000003,0.234,-0.031,99.99,3.0,,0.0,0.0,127.33
2025-08-15T00:40:34.145Z,8,GR86-015-31,-2.8000000000000003,0.263,-0.022,100.0,3.0,,0.0,0.0,
2025-08-15T00:40:34.189Z,8,GR86-015-31,-2.8000000000000003,0.248,-0.033,99.99,3.0,,0.0,0.0,
2025-08-15T00:40:34.232Z,8,GR86-015-31,-2.8000000000000003,0.232,-0.034,100.02,3.0,,0.0,0.0,
2025-08-15T00:40:34.275Z,8,GR86-015-31,-2.8000000000000003,0.243,-0.025,99.99,3.0,5990.0,0.0,0.0,
2025-08-15T00:40:34.318Z,8,GR86-015-31,-2.8000000000000003,0.237,-0.014,100.01,3.0,,0.0,0.0,128.25
2025-08-15T00:40:34.361Z,8,GR86-015-31,-2.8000000000000003,0.244,-0.02,100.02,3.0,,0.0,0.0,
2025-08-15T00:40:34.405Z,8,GR86-015-31,-2.8000000000000003,0.255,-0.028,100.02,3.0,,0.0,0.0,
2025-08-15T00:40:34.447Z,8,GR86-015-31,-2.8000000000000003,0.235,-0.026,100.02,3.0,,0.0,0.0,
2025-08-15T00:40:34.490Z,8,GR86-015-31,-2.8000000000000003,0.244,-0.015,100.02,3.0,6039.0,0.0,0.0,
2025-08-15T00:40:34.534Z,8,GR86-015-31,-2.8000000000000003,0.223,-0.026,100.01,3.0,,0.0,0.0,129.04
2025-08-15T00:40:34.576Z,8,GR86-015-31,-2.8000000000000003,0.257,-0.025,99.99,3.0,,0.0,0.0,
2025-08-15T00:40:34.619Z,8,GR86-015-31,-2.8000000000000003,0.243,-0.032,99.99,3.0,,0.0,0.0,
2025-08-15T00:40:34.662Z,8,GR86-015-31,-2.8000000000000003,0.233,-0.031,99.99,3.0,,0.0,0.0,
2025-08-15T00:40:34.705Z,8,GR86-015-31,-2.8000000000000003,0.238,-0.023,99.99,3.0,6085.0,0.0,0.0,
2025-08-15T00:40:34.748Z,8,GR86-015-31,-2.7,0.253,-0.032,100.01,3.0,,0.0,0.0,129.9
2025-08-15T00:40:34.792Z,8,GR86-015-31,-2.7,0.236,-0.035,100.0,3.0,,0.0,0.0,
2025-08-15T00:40:34.835Z,8,GR86-015-31,-2.6,0.231,-0.019,100.0,3.0,,10.055,10.5,
2025-08-15T00:40:34.878Z,8,GR86-015-31,-2.3000000000000003,0.129,-0.008,65.34,3.0,,20.42,20.725,
2025-08-15T00:40:34.921Z,8,GR86-015-31,-2.1,-0.067,-0.016,0.54,3.0,6134.0,34.15,34.305,
2025-08-15T00:40:34.965Z,8,GR86-015-31,-1.6,-0.385,-0.017,2.69,3.0,,48.3,48.205,130.77
2025-08-15T00:40:35.007Z,8,GR86-015-31,-1.5,-0.772,0.01,2.69,3.0,,57.24,57.025,
2025-08-15T00:40:35.050Z,8,GR86-015-31,-1.2000000000000002,-1.034,0.035,4.3,2.0,,59.56,60.11,
2025-08-15T00:40:35.095Z,8,GR86-015-31,1.2000000000000002,-0.965,-0.024,58.35,2.0,,42.605,44.195,
2025-08-15T00:40:35.138Z,8,GR86-015-31,1.5,-0.708,0.089,7.84,2.0,6056.0,28.9,30.155,
2025-08-15T00:40:35.181Z,8,GR86-015-31,1.5,-0.665,0.091,4.76,2.0,,22.19,23.12,131.04
2025-08-15T00:40:35.225Z,8,GR86-015-31,1.5,-0.627,-0.044,4.25,2.0,,20.295,21.0,
2025-08-15T00:40:35.268Z,8,GR86-015-31,1.5,-0.686,0.154,3.85,2.0,,21.9,22.705,
2025-08-15T00:40:35.310Z,8,GR86-015-31,1.5,-0.634,0.152,3.46,2.0,,25.33,26.2,
2025-08-15T00:40:35.354Z,8,GR86-015-31,2.5,-0.84,0.07,2.99,2.0,5878.0,28.965,29.77,
2025-08-15T00:40:35.398Z,8,GR86-015-31,2.7,-0.604,0.396,2.82,2.0,,29.145,30.185,120.8
2025-08-15T00:40:35.441Z,8,GR86-015-31,2.7,-0.613,0.032,2.74,2.0,,28.46,29.025,
2025-08-15T00:40:35.485Z,8,GR86-015-31,3.0,-0.726,0.183,2.68,2.0,,28.4,28.645,
2025-08-15T00:40:35.528Z,8,GR86-015-31,9.1,-0.644,0.435,2.64,2.0,,28.52,29.025,
2025-08-15T00:40:35.571Z,8,GR86-015-31,15.9,-0.599,0.134,2.61,2.0,6379.0,29.145,29.68,
2025-08-15T00:40:35.615Z,8,GR86-015-31,17.900000000000002,-0.606,0.5640000000000001,2.61,2.0,,29.085,29.36,116.26
2025-08-15T00:40:35.658Z,8,GR86-015-31,13.1,-0.611,0.359,2.6,2.0,,28.75,29.115,
2025-08-15T00:40:35.701Z,8,GR86-015-31,9.3,-0.635,0.235,2.57,2.0,,28.75,29.36,
2025-08-15T00:40:35.745Z,8,GR86-015-31,9.3,-0.612,0.369,2.57,2.0,,29.5,29.71,
2025-08-15T00:40:35.788Z,8,GR86-015-31,12.6,-0.62,0.263,2.56,2.0,6422.0,30.735,31.085,
2025-08-15T00:40:35.830Z,8,GR86-015-31,13.6,-0.622,0.319,2.56,2.0,,31.145,31.36,112.26
2025-08-15T00:40:35.874Z,8,GR86-015-31,13.4,-0.645,0.35,2.5500000000000003,2.0,,30.61,30.995,
2025-08-15T00:40:35.917Z,8,GR86-015-31,20.3,-0.65,0.354,2.54,2.0,,30.795,31.115,
2025-08-15T00:40:35.961Z,8,GR86-015-31,35.1,-0.643,0.42,2.5500000000000003,2.0,,31.205,31.45,
2025-08-15T00:40:36.004Z,8,GR86-015-31,46.1,-0.649,0.605,2.54,2.0,5837.0,31.51,32.045,
2025-08-15T00:40:36.046Z,8,GR86-015-31,47.0,-0.601,0.585,2.53,2.0,,30.705,31.33,107.24
2025-08-15T00:40:36.089Z,8,GR86-015-31,39.1,-0.592,0.657,2.52,2.0,,26.295,27.405,
2025-08-15T00:40:36.132Z,8,GR86-015-31,35.1,-0.509,0.667,2.53,2.0,,18.465,19.395,
2025-08-15T00:40:36.175Z,8,GR86-015-31,48.1,-0.471,0.747,2.54,2.0,,9.63,10.315,
2025-08-15T00:40:36.218Z,8,GR86-015-31,57.400000000000006,-0.365,0.897,2.52,2.0,5535.0,3.97,4.3950000000000005,
2025-08-15T00:40:36.261Z,8,GR86-015-31,57.6,-0.184,0.954,2.52,2.0,,0.0,0.0,103.14
2025-08-15T00:40:36.305Z,8,GR86-015-31,50.1,-0.168,1.002,2.53,2.0,,0.0,0.0,
2025-08-15T00:40:36.347Z,8,GR86-015-31,47.2,-0.122,0.967,2.53,2.0,,0.0,0.0,
2025-08-15T00:40:36.390Z,8,GR86-015-31,51.400000000000006,-0.167,0.98,2.81,2.0,,0.0,0.0,
2025-08-15T00:40:36.434Z,8,GR86-015-31,50.3,-0.168,1.002,4.65,2.0,5536.0,0.0,0.0,
2025-08-15T00:40:36.476Z,8,GR86-015-31,35.4,-0.114,0.957,4.73,2.0,,0.0,1.8,101.09
2025-08-15T00:40:36.519Z,8,GR86-015-31,21.9,-0.137,0.863,4.73,2.0,,8.27,8.545,
2025-08-15T00:40:36.562Z,8,GR86-015-31,18.1,-0.276,0.731,2.94,2.0,,18.295,18.495,
2025-08-15T00:40:36.605Z,8,GR86-015-31,29.4,-0.502,0.711,2.84,2.0,,28.275,28.245,
2025-08-15T00:40:36.648Z,8,GR86-015-31,46.8,-0.62,0.769,2.73,2.0,5460.0,33.875,33.74,
2025-08-15T00:40:36.692Z,8,GR86-015-31,49.7,-0.654,0.852,2.71,2.0,,34.87,35.495,99.52
2025-08-15T00:40:36.735Z,8,GR86-015-31,26.3,-0.536,0.802,4.63,2.0,,16.435,17.0,
2025-08-15T00:40:36.778Z,8,GR86-015-31,22.3,-0.34,0.738,4.7,2.0,,4.745,5.16,
2025-08-15T00:40:36.821Z,8,GR86-015-31,42.900000000000006,-0.076,0.798,4.7700000000000005,2.0,,0.0,0.0,
2025-08-15T00:40:36.865Z,8,GR86-015-31,73.9,-0.313,0.93,19.86,2.0,5078.0,0.0,0.0,
2025-08-15T00:40:36.907Z,8,GR86-015-31,97.8,-0.347,0.993,20.61,2.0,,0.0,0.0,95.72
2025-08-15T00:40:36.950Z,8,GR86-015-31,103.3,-0.178,1.078,20.73,2.0,,0.0,0.0,
2025-08-15T00:40:36.995Z,8,GR86-015-31,102.4,-0.139,1.123,21.05,2.0,,0.0,0.0,
2025-08-15T00:40:37.038Z,8,GR86-015-31,102.5,-0.057,1.159,21.24,2.0,,0.0,0.0,
2025-08-15T00:40:37.081Z,8,GR86-015-31,106.9,0.116,1.13,21.45,2.0,5291.0,0.0,0.0,
2025-08-15T00:40:37.125Z,8,GR86-015-31,109.7,0.081,1.168,21.64,2.0,,0.0,0.0,93.44
2025-08-15T00:40:37.168Z,8,GR86-015-31,110.6,0.02,1.19,21.81,2.0,,0.0,0.0,
2025-08-15T00:40:37.210Z,8,GR86-015-31,111.8,-0.032,1.205,21.94,2.0,,0.0,0.0,
2025-08-15T00:40:37.254Z,8,GR86-015-31,114.9,0.011,1.235,22.06,2.0,,0.0,0.0,
2025-08-15T00:40:37.296Z,8,GR86-015-31,116.3,0.022,1.272,22.09,2.0,5243.0,0.0,0.0,
2025-08-15T00:40:37.340Z,8,GR86-015-31,117.0,0.04,1.228,22.09,2.0,,0.0,0.0,92.26
2025-08-15T00:40:37.384Z,8,GR86-015-31,117.5,0.063,1.216,22.09,2.0,,0.0,0.0,
2025-08-15T00:40:37.426Z,8,GR86-015-31,118.2,0.023,1.242,22.1,2.0,,0.0,0.0,
2025-08-15T00:40:37.469Z,8,GR86-015-31,118.6,0.008,1.246,22.1,2.0,,0.0,0.0,
2025-08-15T00:40:37.512Z,8,GR86-015-31,119.2,0.006,1.279,22.09,2.0,5313.0,0.0,0.0,
2025-08-15T00:40:37.555Z,8,GR86-015-31,121.0,0.044,1.207,21.01,2.0,,0.0,0.0,92.11
2025-08-15T00:40:37.598Z,8,GR86-015-31,122.7,0.055,1.215,4.96,2.0,,0.0,0.0,
2025-08-15T00:40:37.641Z,8,GR86-015-31,123.6,0.046,1.158,4.0,2.0,,0.0,0.0,
2025-08-15T00:40:37.685Z,8,GR86-015-31,123.7,-0.028,1.256,4.03,2.0,,0.0,0.0,
2025-08-15T00:40:37.728Z,8,GR86-015-31,123.8,-0.177,1.267,19.97,2.0,5311.0,0.0,0.0,
2025-08-15T00:40:37.770Z,8,GR86-015-31,123.8,-0.158,1.294,22.68,2.0,,0.0,0.0,91.76
2025-08-15T00:40:37.814Z,8,GR86-015-31,123.8,-0.221,1.256,74.15,2.0,,0.0,0.0,
2025-08-15T00:40:37.856Z,8,GR86-015-31,123.8,-0.121,1.289,99.62,2.0,,0.0,0.0,
2025-08-15T00:40:37.899Z,8,GR86-015-31,121.4,-0.127,1.213,100.13,2.0,,0.0,0.0,
2025-08-15T00:40:37.942Z,8,GR86-015-31,115.9,0.275,1.24,100.13,2.0,4961.0,0.0,0.0,
2025-08-15T00:40:37.985Z,8,GR86-015-31,109.0,0.313,1.189,100.12,2.0,,0.0,0.0,91.43
2025-08-15T00:40:38.028Z,8,GR86-015-31,99.7,0.382,1.203,100.13,2.0,,0.0,0.0,
2025-08-15T00:40:38.071Z,8,GR86-015-31,91.2,0.3,1.164,100.13,2.0,,0.0,0.0,
2025-08-15T00:40:38.115Z,8,GR86-015-31,84.5,0.205,1.196,100.13,2.0,,0.0,0.0,
2025-08-15T00:40:38.157Z,8,GR86-015-31,83.60000000000001,0.204,1.17,100.14,2.0,5590.0,0.0,0.0,
2025-08-15T00:40:38.200Z,8,GR86-015-31,83.7,0.193,1.159,100.16,2.0,,0.0,0.0,91.89
2025-08-15T00:40:38.244Z,8,GR86-015-31,83.7,0.253,1.188,100.13,2.0,,0.0,0.0,
2025-08-15T00:40:38.286Z,8,GR86-015-31,83.5,0.275,1.19,100.14,2.0,,0.0,0.0,
2025-08-15T00:40:38.329Z,8,GR86-015-31,83.60000000000001,0.269,1.206,100.14,2.0,,0.0,0.0,
2025-08-15T00:40:38.372Z,8,GR86-015-31,83.60000000000001,0.253,1.181,100.13,2.0,5406.0,0.0,0.0,
2025-08-15T00:40:38.415Z,8,GR86-015-31,84.5,0.245,1.131,100.13,2.0,,0.0,0.0,93.11
2025-08-15T00:40:38.458Z,8,GR86-015-31,85.10000000000001,0.256,1.144,100.15,2.0,,0.0,0.0,
2025-08-15T00:40:38.502Z,8,GR86-015-31,85.4,0.225,1.167,100.13,2.0,,0.0,0.0,
2025-08-15T00:40:38.545Z,8,GR86-015-31,85.4,0.246,1.155,100.14,2.0,,0.0,0.0,
2025-08-15T00:40:38.587Z,8,GR86-015-31,85.60000000000001,0.251,1.153,100.13,2.0,5510.0,0.0,0.0,
2025-08-15T00:40:38.630Z,8,GR86-015-31,86.2,0.249,1.124,100.15,2.0,,0.0,0.0,94.49
2025-08-15T00:40:38.674Z,8,GR86-015-31,87.80000000000001,0.249,1.125,100.14,2.0,,0.0,0.0,
2025-08-15T00:40:38.716Z,8,GR86-015-31,89.2,0.235,1.142,100.14,2.0,,0.0,0.0,
2025-08-15T00:40:38.759Z,8,GR86-015-31,90.6,0.233,1.183,100.13,2.0,,0.0,0.0,
2025-08-15T00:40:38.804Z,8,GR86-015-31,91.4,0.224,1.227,100.14,2.0,5690.0,0.0,0.0,
2025-08-15T00:40:38.848Z,8,GR86-015-31,91.7,0.229,1.195,100.14,2.0,,0.0,0.0,95.88
2025-08-15T00:40:38.892Z,8,GR86-015-31,92.0,0.233,1.201,100.11,2.0,,0.0,0.0,
2025-08-15T00:40:38.935Z,8,GR86-015-31,92.3,0.246,1.23,100.14,2.0,,0.0,0.0,
2025-08-15T00:40:38.978Z,8,GR86-015-31,92.4,0.22,1.243,100.12,2.0,,0.0,0.0,
2025-08-15T00:40:39.021Z,8,GR86-015-31,92.6,0.246,1.048,100.13,2.0,5757.0,0.0,0.0,
2025-08-15T00:40:39.065Z,8,GR86-015-31,92.6,0.199,1.113,100.12,2.0,,0.0,0.0,97.38
2025-08-15T00:40:39.107Z,8,GR86-015-31,92.2,0.194,1.097,100.11,2.0,,0.0,0.0,
2025-08-15T00:40:39.150Z,8,GR86-015-31,92.3,0.42,0.451,100.11,2.0,,0.0,0.0,
2025-08-15T00:40:39.195Z,8,GR86-015-31,88.4,0.299,0.839,100.11,2.0,,0.0,0.0,
2025-08-15T00:40:39.238Z,8,GR86-015-31,84.5,0.068,0.936,100.11,2.0,5846.0,0.0,0.0,
2025-08-15T00:40:39.281Z,8,GR86-015-31,80.10000000000001,0.096,1.167,100.11,2.0,,0.0,0.0,98.6
2025-08-15T00:40:39.325Z,8,GR86-015-31,72.8,0.257,1.376,100.1,2.0,,0.0,0.0,
2025-08-15T00:40:39.368Z,8,GR86-015-31,65.2,0.244,0.938,100.08,2.0,,0.0,0.0,
2025-08-15T00:40:39.410Z,8,GR86-015-31,56.400000000000006,0.02,1.161,100.09,2.0,,0.0,0.0,
2025-08-15T00:40:39.454Z,8,GR86-015-31,39.900000000000006,0.151,0.943,100.09,2.0,6215.0,0.0,0.0,
2025-08-15T00:40:39.497Z,8,GR86-015-31,25.6,-0.092,0.807,100.07,2.0,,0.0,0.0,99.91
2025-08-15T00:40:39.541Z,8,GR86-015-31,13.7,-0.059,0.779,100.09,2.0,,0.0,0.0,
2025-08-15T00:40:39.584Z,8,GR86-015-31,9.4,0.123,0.681,100.09,2.0,,0.0,0.0,
2025-08-15T00:40:39.626Z,8,GR86-015-31,9.9,0.318,0.858,100.09,2.0,,0.0,0.0,
2025-08-15T00:40:39.669Z,8,GR86-015-31,9.8,0.403,0.651,100.08,2.0,6225.0,0.0,0.0,
2025-08-15T00:40:39.714Z,8,GR86-015-31,1.9,0.286,0.896,100.09,2.0,,0.0,0.0,102.19
2025-08-15T00:40:39.756Z,8,GR86-015-31,3.7,0.416,0.677,100.1,2.0,,0.0,0.0,
2025-08-15T00:40:39.799Z,8,GR86-015-31,13.3,0.264,0.897,100.09,2.0,,0.0,0.0,
2025-08-15T00:40:39.842Z,8,GR86-015-31,10.7,0.416,0.928,100.06,2.0,,0.0,0.0,
2025-08-15T00:40:39.885Z,8,GR86-015-31,2.0,0.351,0.851,100.08,2.0,6347.0,0.0,0.0,
2025-08-15T00:40:39.928Z,8,GR86-015-31,7.9,0.351,0.531,100.1,2.0,,0.0,0.0,103.83
2025-08-15T00:40:39.971Z,8,GR86-015-31,29.5,0.306,0.647,100.07,2.0,,0.0,0.0,
2025-08-15T00:40:40.015Z,8,GR86-015-31,51.400000000000006,0.124,0.458,100.04,2.0,,0.0,0.0,
2025-08-15T00:40:40.057Z,8,GR86-015-31,53.1,0.129,0.729,100.03,2.0,,0.0,0.0,
2025-08-15T00:40:40.100Z,8,GR86-015-31,51.5,0.066,0.794,100.02,2.0,6254.0,0.0,0.0,
2025-08-15T00:40:40.145Z,8,GR86-015-31,42.400000000000006,0.386,0.993,99.98,2.0,,0.0,0.0,104.58
2025-08-15T00:40:40.188Z,8,GR86-015-31,28.0,0.53,0.866,99.99,2.0,,0.0,0.0,
2025-08-15T00:40:40.230Z,8,GR86-015-31,14.1,0.243,0.749,100.0,2.0,,0.0,0.0,
2025-08-15T00:40:40.274Z,8,GR86-015-31,8.4,0.241,0.679,100.0,2.0,,0.0,0.0,
2025-08-15T00:40:40.316Z,8,GR86-015-31,10.0,0.067,0.596,99.99,2.0,6624.0,0.0,0.0,
2025-08-15T00:40:40.359Z,8,GR86-015-31,15.2,0.217,0.442,100.0,2.0,,0.0,0.0,105.91
2025-08-15T00:40:40.402Z,8,GR86-015-31,16.400000000000002,0.267,0.623,99.99,2.0,,0.0,0.0,
2025-08-15T00:40:40.445Z,8,GR86-015-31,16.2,0.301,0.553,100.0,2.0,,0.0,0.0,
2025-08-15T00:40:40.490Z,8,GR86-015-31,11.7,0.149,0.507,99.99,2.0,,0.0,0.0,
2025-08-15T00:40:40.532Z,8,GR86-015-31,8.6,0.371,0.548,99.97,2.0,6471.0,0.0,0.0,
2025-08-15T00:40:40.575Z,8,GR86-015-31,5.7,0.305,0.443,99.98,2.0,,0.0,0.0,108.51
2025-08-15T00:40:40.618Z,8,GR86-015-31,3.6,0.278,0.28,100.0,2.0,,0.0,0.0,
2025-08-15T00:40:40.661Z,8,GR86-015-31,-1.6,0.185,0.159,100.0,2.0,,0.0,0.0,
2025-08-15T00:40:40.705Z,8,GR86-015-31,-7.6,0.095,0.079,99.99,2.0,,0.0,0.0,
2025-08-15T00:40:40.747Z,8,GR86-015-31,-10.7,0.328,0.084,100.02,2.0,6487.0,0.0,0.0,
2025-08-15T00:40:40.790Z,8,GR86-015-31,-11.2,0.219,0.007,100.0,2.0,,0.0,0.0,110.16
2025-08-15T00:40:40.834Z,8,GR86-015-31,-10.6,0.27,-0.052,99.99,2.0,,0.0,0.0,
2025-08-15T00:40:40.876Z,8,GR86-015-31,-9.4,0.201,-0.199,100.0,2.0,,0.0,0.0,
2025-08-15T00:40:40.919Z,8,GR86-015-31,-8.3,0.121,-0.335,100.01,2.0,,0.0,0.0,
2025-08-15T00:40:40.962Z,8,GR86-015-31,-7.4,0.291,-0.332,100.01,2.0,6584.0,0.0,0.0,
2025-08-15T00:40:41.005Z,8,GR86-015-31,-5.9,0.373,-0.372,100.0,2.0,,0.0,0.0,114.06
2025-08-15T00:40:41.048Z,8,GR86-015-31,-4.9,0.372,-0.307,100.02,2.0,,0.0,0.0,
2025-08-15T00:40:41.092Z,8,GR86-015-31,-4.6000000000000005,0.308,-0.236,99.99,2.0,,0.0,0.0,
2025-08-15T00:40:41.135Z,8,GR86-015-31,-4.6000000000000005,0.235,-0.229,99.99,2.0,,0.0,0.0,
2025-08-15T00:40:41.178Z,8,GR86-015-31,-4.9,0.287,-0.151,99.99,2.0,6750.0,0.0,0.0,
2025-08-15T00:40:41.221Z,8,GR86-015-31,-5.0,0.31,-0.108,100.01,2.0,,0.0,0.0,116.21
2025-08-15T00:40:41.265Z,8,GR86-015-31,-5.0,0.313,-0.102,100.01,2.0,,0.0,0.0,
2025-08-15T00:40:41.307Z,8,GR86-015-31,-4.7,0.322,-0.08,99.98,2.0,,0.0,0.0,
2025-08-15T00:40:41.350Z,8,GR86-015-31,-4.6000000000000005,0.297,-0.088,100.01,2.0,,0.0,0.0,
2025-08-15T00:40:41.395Z,8,GR86-015-31,-4.5,0.292,-0.081,99.99,2.0,6854.0,0.0,0.0,
2025-08-15T00:40:41.438Z,8,GR86-015-31,-4.4,0.271,-0.094,99.98,2.0,,0.0,0.0,118.14
2025-08-15T00:40:41.481Z,8,GR86-015-31,-4.4,0.328,-0.087,100.01,2.0,,0.0,0.0,
